File: 20220926_XRR/20210729-1-5 2/20210729-5_pre_2θ_ω.asc
*TYPE		=  Raw
*CLASS		=  ASCII CLASS
*SAMPLE		=  2V032701 Fe1h VSM
*COMMENT	=
*FNAME		=  20210729-5_pre_2θ_ω.asc
*DATE		=  29-Jul-21 11:51

*GROUP_COUNT	=  1
*GONIO		=  SmartLab(In-plane), 0.000000
*ATTACHMENT	=  χφZクレードル
*ASC		=  0, 0, 0.000000, 0.000000
*I_MONOCHRO	=  Ge(220)x2, 0.000000
*FILTER		=  None
*C_MONOCHRO	=  None, 0.000000
*SLIT_NAME	=  0, 入射スリット
*SLIT_NAME	=  1, 受光スリット1
*SLIT_NAME	=  2, 受光スリット2
*COUNTER	=  SC-70, 0
*POS_FORMAT	=  0
*SCAN_AXIS	=  2Theta/Omega
*MEAS_MODE	=  Continuous Scanning
*TARGET		=  29
*XRAY_CHAR	=  K-ALPHA1
*WAVE_LENGTH1	=  1.54059
*WAVE_LENGTH2	=  1.54441
*THICKNESS	=  0, 0.000000
*MU		=  0, 0.000000
*SCAN_MODE	=  2Theta/Omega
*SPEED_DIM	=  sec./step
*XUNIT		=  deg.
*YUNIT		=  counts
*SCALE_MODE	=  1
*REP_COUNT	=  0
*SE_COUNT	=  0
*STD_MATERIAL	=  Unknown, Unknown, 0.000000, 0.000000, 0.000000, 0.000000, 0.000000, 0.000000
*LATT_CONS	=  0, Unknown, Unknown, 0.000000, 0.000000, 0.000000, 0.000000, 0.000000, 0.000000
*SEC_COUNT	=  1
*TSPEC_SIZE	=  0
*EXTRA_SIZE	=  0
*MEMO		=

*BEGIN
*GROUP		=  0
*START		=  0.000000
*STOP		=  6
*STEP		=  0.004
*OFFSET		=  0.000000
*SPEED		=  0.08
*SLIT_SPEC	=  0, 0.100mm, 0.1, 0.000000
*SLIT_SPEC	=  1, 0.200mm, 0.2, 0.000000
*SLIT_SPEC	=  2, 0.200mm, 0.2, 0.000000
*KV		=  45
*MA		=  200
*LOW		=  0.000000
*HIGH		=  0.000000
*CTEMPER	=  0, 0.000000
*CTEMPER	=  1, 0.000000
*CTEMPER	=  2, 0.000000
*PAREX		=  0, 0.000000
*PAREX		=  1, 0.000000
*PAREX		=  2, 0.000000
*PAREX		=  3, 0.000000
*PAREX		=  4, 0.000000
*PAREX		=  5, 0.000000
*PAREX		=  6, 0.000000
*PAREX		=  7, 0.000000
*PAREX		=  8, 0.000000
*PAREX		=  9, 0.000000
*PAREX		=  10, 0.000000
*PAREX		=  11, 0.000000
*PAREX		=  12, 0.000000
*PAREX		=  13, 0.000000
*PAREX		=  14, 0.000000
*PAREX		=  15, 0.000000
*FULL_SCALE	=  37779044
*INDEX		=  0, 0, 0
*COUNT		=  1501
2376214.5, 2518603, 2413905.5, 2454947
2266491.5, 2008516.9, 1500105.8, 1024360.3
662526, 530188, 445593, 407064
424653, 451456, 500035, 500873
523488, 591332, 598870, 588819
608083, 720319, 705242, 809940
750472, 842606, 882809, 884485
943115, 903749, 1009283.9, 974106
1010121.5, 1007608.8, 1059538.8, 1146647
1113981.4, 1179312.6, 1192713.9, 1206952.8
1229567.5, 1234592.9, 1291548.4, 1291548.4
1338452.9, 1389545.3, 1345153.5, 1383682.1
1388707.6, 1500105.8, 1511831.9, 1435612.1
1468277.8, 1482516.6, 1597265, 1553710.9
1623230, 1520207.8, 1604803.3, 1572975.3
1640819.3, 1632443.4, 1718714.1, 1650870.1
1714526.3, 1728765.1, 1711176, 1715363.9
1777344.8, 1809172.8, 1784045.4, 1845188.8
1748029.5, 1842676, 1796609.1, 1861102.8
1872828.9, 1962450, 1933134.6, 1947373.5
1926434, 1924758.9, 1928109.1, 1957424.5
1916383, 1969988.1, 1963287.5, 2041182.5
1936485, 2012704.8, 2011867.1, 2017730.3
2057096.5, 2039507.3, 1990927.6, 2050395.9
1964962.6, 2035319.4, 1954074.1, 2083061.5
2079711.1, 2071335.4, 2088087, 2129966
2072172.9, 2123265.3, 2094787.6, 2106513.8
2084736.6, 1999303.5, 2150905.5, 2126615.5
1998465.9, 2068822.6, 2104838.5, 2143367.3
2069660.1, 2127453.3, 2036994.5, 2116564.8
2103163.5, 2079711.1, 2026106, 2109026.5
2026106, 2000141, 2047883.1, 1979201.5
2027781.1, 1986739.8, 1936485, 2047045.5
2039507.3, 1918058.3, 2003491.4, 1935647.4
1957424.5, 1944860.8, 1960774.8, 1949886.3
1923083.6, 1899631.5, 1958262, 1938160.1
1826762, 1829274.8, 1832625, 1886230.1
1802472.1, 1773156.9, 1830949.9, 1788233.3
1699449.9, 1702800.1, 1694424.4, 1751379.8
1693586.8, 1632443.4, 1616529.4, 1649195
1637468.9, 1587214.1, 1629093.1, 1519370.1
1531933.9, 1466602.6, 1581351, 1502618.5
1511831.9, 1495080.3, 1466602.6, 1384519.8
1366093, 1397083.5, 1337615.3, 1320026.1
1307462.4, 1242131.1, 1235430.5, 1155022.9
1188526, 1127382.6, 1144134.3, 1046975
1004258.4, 1041949.5, 900399, 947303
895373, 885322, 828367, 799051
714456, 644937, 639911, 620647
615621, 527675, 551965, 507573
466532, 449780, 428841, 407901
374398, 346758, 339220, 362672
303957, 276296, 267949, 256713
242642, 226162, 225895, 203048
200213, 185125, 179935, 170411
163134, 157463, 147244, 144729
133975, 130550, 129962, 116318
119475, 112787, 102568, 102461
98287.2, 88228.4, 90047.6, 85767.2
84483.1, 75815.5, 74638.4, 73247.3
67468.8, 71428.1, 64633.1, 65435.6
61957.9, 57891.5, 57035.5, 54734.8
50240.4, 53183.2, 48795.8, 44301.5
45960.1, 44248, 42321.8, 40770.2
36810.9, 37452.9, 37720.5, 36650.4
34456.7, 33226.1, 30925.4, 31300
30443.9, 29427.3, 29587.8, 28464.2
26966.1, 23434.8, 23274.3, 21401.7
20599.1, 22150.7, 21294.7, 21990.2
18780, 18726.5, 19422, 19101
18780, 16853.8, 18298.4, 15569.7
14018.1, 17014.3, 14018.1, 13162
11877.9, 12038.4, 12306, 11663.9
10914.9, 12145.5, 11723, 11668
11629, 11542, 11049, 10779
10365, 9774, 9260, 8514
8262, 7692, 7219, 6920
6645, 6630, 6424, 6453
6545, 6641, 6664, 6764
6688, 6525, 6336, 6061
5508, 5286, 4862, 4485
4177, 3851, 3589, 3496
3431, 3382, 3509, 3816
3694, 3785, 3853, 3864
3793, 3687, 3729, 3231
3173, 2845, 2590, 2358
2138, 2004, 1842, 1729
1850, 1882, 1910, 1974
2077, 2146, 2161, 2276
2242, 2203, 2000, 1997
1783, 1502, 1398, 1276
1037, 963, 916, 878
833, 876, 943, 1026
1080, 1192, 1251, 1255
1297, 1245, 1167, 1137
1016, 913, 817, 670
579, 519, 442, 371
359, 378, 465, 464
541, 584, 624, 729
711, 691, 714, 687
650, 546, 513, 440
343, 279, 238, 197
171, 172, 170, 202
230, 247, 318, 340
348, 376, 393, 376
380, 351, 309, 267
238, 198, 184, 126
100, 76, 65, 83
92, 145, 135, 172
183, 209, 218, 243
220, 204, 199, 212
149, 149, 109, 93
82, 54, 49, 59
48, 53, 66, 87
91, 96, 122, 117
156, 132, 128, 125
119, 109, 91, 80
49, 66, 54, 55
56, 46, 50, 69
79, 69, 105, 88
95, 91, 76, 100
85, 74, 70, 63
45, 41, 57, 62
50, 51, 61, 61
62, 77, 99, 91
76, 80, 97, 72
71, 54, 53, 54
43, 41, 35, 27
33, 55, 46, 59
82, 94, 95, 100
99, 116, 112, 88
94, 86, 70, 52
40, 45, 32, 30
44, 46, 33, 51
44, 58, 68, 92
87, 109, 92, 112
116, 98, 84, 77
85, 62, 65, 42
42, 29, 29, 33
29, 33, 50, 70
74, 86, 107, 100
98, 131, 103, 110
117, 124, 68, 75
44, 58, 34, 41
43, 18, 34, 34
45, 47, 59, 94
97, 127, 110, 106
115, 137, 109, 106
93, 95, 63, 60
49, 47, 46, 15
33, 44, 38, 46
69, 79, 82, 115
97, 115, 141, 134
116, 105, 109, 88
110, 76, 57, 55
46, 40, 56, 35
30, 45, 43, 68
76, 75, 101, 107
113, 115, 97, 124
120, 113, 95, 82
83, 79, 57, 57
36, 32, 28, 41
34, 44, 60, 80
69, 107, 123, 88
104, 109, 114, 134
110, 92, 80, 64
72, 54, 54, 37
39, 42, 38, 43
44, 48, 62, 75
83, 121, 117, 104
125, 102, 104, 103
90, 75, 67, 56
59, 44, 33, 21
49, 22, 32, 40
36, 55, 86, 95
87, 111, 110, 112
103, 104, 99, 87
80, 77, 74, 44
51, 40, 32, 30
37, 42, 41, 44
60, 56, 67, 83
96, 84, 86, 76
94, 90, 85, 83
94, 49, 49, 49
51, 42, 28, 25
30, 37, 37, 56
51, 60, 78, 64
85, 107, 82, 80
79, 77, 68, 79
71, 68, 45, 39
36, 27, 21, 36
41, 30, 35, 47
41, 61, 54, 73
78, 79, 75, 96
83, 68, 71, 76
61, 52, 34, 40
33, 24, 24, 27
31, 34, 43, 50
52, 74, 73, 60
69, 79, 76, 78
67, 81, 63, 51
46, 43, 44, 29
30, 24, 23, 25
30, 34, 44, 37
49, 55, 57, 80
78, 61, 65, 75
65, 62, 50, 38
43, 44, 29, 32
24, 21, 22, 27
29, 38, 33, 50
42, 38, 62, 72
65, 65, 67, 53
51, 54, 46, 47
36, 40, 28, 27
19, 23, 27, 21
25, 39, 36, 51
39, 68, 47, 60
65, 61, 61, 56
53, 50, 36, 37
26, 32, 31, 25
27, 20, 32, 26
25, 42, 43, 40
47, 55, 47, 53
66, 58, 52, 55
56, 46, 31, 37
33, 18, 26, 21
24, 16, 34, 31
30, 26, 35, 39
29, 46, 46, 56
52, 41, 64, 41
39, 32, 37, 24
23, 22, 21, 29
23, 16, 22, 34
28, 29, 35, 42
46, 38, 38, 48
48, 48, 42, 39
26, 30, 33, 35
22, 22, 18, 21
19, 18, 19, 18
20, 28, 30, 31
51, 45, 33, 41
48, 28, 42, 43
35, 37, 26, 27
21, 19, 20, 15
16, 26, 27, 20
20, 26, 27, 42
26, 31, 34, 32
40, 30, 36, 31
20, 16, 24, 18
22, 18, 17, 23
15, 14, 13, 18
16, 17, 27, 34
27, 34, 22, 26
24, 34, 27, 19
27, 25, 22, 17
20, 22, 10, 15
17, 13, 17, 23
17, 22, 22, 27
26, 24, 34, 26
33, 29, 29, 24
23, 25, 18, 16
12, 23, 10, 14
11, 17, 16, 15
36, 15, 20, 30
30, 29, 28, 27
21, 20, 18, 28
21, 17, 15, 16
15, 13, 8, 17
16, 14, 20, 21
14, 20, 11, 20
22, 23, 18, 23
19, 23, 25, 15
22, 10, 14, 9
14, 11, 10, 12
12, 13, 14, 19
20, 17, 13, 12
19, 22, 17, 14
23, 18, 15, 18
13, 12, 9, 16
11, 14, 8, 10
10, 17, 12, 7
14, 19, 11, 15
13, 15, 17, 15
16, 10, 12, 16
17, 9, 11, 11
11, 4, 7, 13
6, 5, 11, 11
15, 10, 15, 4
10, 14, 15, 14
17, 11, 9, 9
12, 7, 15, 15
9, 9, 3, 7
10, 8, 13, 10
5, 13, 13, 7
15, 10, 15, 7
14, 9, 10, 8
9, 13, 2, 3
4, 5, 8, 8
10, 11, 3, 6
11, 9, 7, 10
9, 11, 2, 9
11, 9, 7, 13
6, 5, 7, 0.000000
4, 3, 3, 8
9, 7, 7, 7
9, 6, 5, 6
9, 5, 12, 9
6, 10, 3, 10
5, 6, 6, 1
2, 4, 6, 4
4, 4, 5, 4
9, 5, 4, 12
12, 3, 9, 8
6, 5, 4, 9
2, 5, 9, 4
2, 1, 5, 7
4, 5, 4, 6
7, 3, 10, 7
9, 8, 2, 7
3, 3, 2, 4
6, 3, 6, 7
0.000000, 2, 3, 1
6, 5, 4, 6
8, 10, 3, 5
3, 5, 1, 7
5, 6, 4, 3
4, 0.000000, 2, 2
2, 4, 4, 4
5, 3, 2, 6
5, 3, 0.000000, 7
5, 1, 2, 7
2, 4, 4, 0.000000
3, 0.000000, 3, 5
2, 3, 2, 5
4, 3, 3, 3
2, 4, 2, 2
2, 0.000000, 2, 3
0.000000, 3, 0.000000, 2
4, 1, 0.000000, 2
2, 3, 1, 1
3, 7, 2, 1
3, 3, 5, 1
1, 2, 0.000000, 3
1, 1, 0.000000, 4
1, 1, 1, 0.000000
2, 0.000000, 2, 1
2, 3, 3, 1
4, 1, 3, 0.000000
1, 3, 2, 2
0.000000, 1, 1, 2
0.000000, 3, 1, 3
4, 2, 1, 1
0.000000, 1, 1, 1
1, 3, 1, 3
1, 1, 0.000000, 2
1, 4, 3, 1
2, 0.000000, 0.000000, 1
3, 1, 0.000000, 1
0.000000, 4, 1, 1
0.000000, 3, 4, 3
2, 0.000000, 0.000000, 1
2, 1, 1, 1
0.000000, 2, 0.000000, 0.000000
1, 0.000000, 1, 1
0.000000, 1, 1, 1
0.000000, 1, 1, 2
1, 0.000000, 0.000000, 0.000000
0.000000, 0.000000, 1, 1
0.000000, 2, 2, 0.000000
0.000000, 1, 0.000000, 0.000000
1, 1, 1, 0.000000
1, 2, 2, 3
0.000000, 0.000000, 1, 0.000000
0.000000, 0.000000, 2, 0.000000
2, 1, 0.000000, 0.000000
2
*END

*EOF