File: 20220926_XRR/20210729-1-5 2/20210729-1_pre_2θ_ω.asc
*TYPE		=  Raw
*CLASS		=  ASCII CLASS
*SAMPLE		=  1V041101 S45C 25m VS600 120mA 150V -30deg phi440(4t) ellpse
*COMMENT	=
*FNAME		=  20210729-1_pre_2θ_ω.asc
*DATE		=  29-Jul-21 10:09

*GROUP_COUNT	=  1
*GONIO		=  SmartLab(In-plane), 0.000000
*ATTACHMENT	=  χφZクレードル
*ASC		=  0, 0, 0.000000, 0.000000
*I_MONOCHRO	=  Ge(220)x2, 0.000000
*FILTER		=  None
*C_MONOCHRO	=  None, 0.000000
*SLIT_NAME	=  0, 入射スリット
*SLIT_NAME	=  1, 受光スリット1
*SLIT_NAME	=  2, 受光スリット2
*COUNTER	=  SC-70, 0
*POS_FORMAT	=  0
*SCAN_AXIS	=  2Theta/Omega
*MEAS_MODE	=  Continuous Scanning
*TARGET		=  29
*XRAY_CHAR	=  K-ALPHA1
*WAVE_LENGTH1	=  1.54059
*WAVE_LENGTH2	=  1.54441
*THICKNESS	=  0, 0.000000
*MU		=  0, 0.000000
*SCAN_MODE	=  2Theta/Omega
*SPEED_DIM	=  sec./step
*XUNIT		=  deg.
*YUNIT		=  counts
*SCALE_MODE	=  1
*REP_COUNT	=  0
*SE_COUNT	=  0
*STD_MATERIAL	=  Unknown, Unknown, 0.000000, 0.000000, 0.000000, 0.000000, 0.000000, 0.000000
*LATT_CONS	=  0, Unknown, Unknown, 0.000000, 0.000000, 0.000000, 0.000000, 0.000000, 0.000000
*SEC_COUNT	=  1
*TSPEC_SIZE	=  0
*EXTRA_SIZE	=  0
*MEMO		=  600 120mA 150V -30deg phi440(4t) ellpse

*BEGIN
*GROUP		=  0
*START		=  0.000000
*STOP		=  6
*STEP		=  0.004
*OFFSET		=  0.000000
*SPEED		=  0.08
*SLIT_SPEC	=  0, 0.100mm, 0.1, 0.000000
*SLIT_SPEC	=  1, 0.200mm, 0.2, 0.000000
*SLIT_SPEC	=  2, 0.200mm, 0.2, 0.000000
*KV		=  45
*MA		=  200
*LOW		=  0.000000
*HIGH		=  0.000000
*CTEMPER	=  0, 0.000000
*CTEMPER	=  1, 0.000000
*CTEMPER	=  2, 0.000000
*PAREX		=  0, 0.000000
*PAREX		=  1, 0.000000
*PAREX		=  2, 0.000000
*PAREX		=  3, 0.000000
*PAREX		=  4, 0.000000
*PAREX		=  5, 0.000000
*PAREX		=  6, 0.000000
*PAREX		=  7, 0.000000
*PAREX		=  8, 0.000000
*PAREX		=  9, 0.000000
*PAREX		=  10, 0.000000
*PAREX		=  11, 0.000000
*PAREX		=  12, 0.000000
*PAREX		=  13, 0.000000
*PAREX		=  14, 0.000000
*PAREX		=  15, 0.000000
*FULL_SCALE	=  49413032
*INDEX		=  0, 0, 0
*COUNT		=  1501
3294202.3, 3111609.8, 3001049.3, 2853635
2329310, 1919733.4, 1294898.6, 832555
474070, 315942, 186355, 153557
135954, 136489, 137238, 147244
151203, 160834, 167094, 173086
181165, 189458, 194541, 203583
219421, 222791, 225199, 240769
245370, 247938, 256125, 278008
275226, 292133, 292400, 295129
314391, 321774, 327981, 335953
333652, 353021, 353342, 364738
371533, 381271, 387798, 386621
402031, 411768, 418349, 423111
444834, 440982, 455909, 455695
463560, 472442, 490366, 491864
500532, 498820, 505936, 518563
527926, 538573, 542533, 539643
554143, 558209, 551735, 567787
579022, 598712, 600478, 605775
605133, 610964, 621451, 626588
636379, 647882, 656604, 662757
662917, 681162, 684747, 682018
694164, 691060, 701761, 710429
709038, 723270, 727550, 726480
727015, 744939, 746223, 761579
758369, 764682, 782071, 780359
778807, 790525, 780626, 790150
811070, 811391, 821290, 822520
810535, 831669, 837448, 845687
838036, 844029, 852375, 854516
855800, 855479, 863611, 871209
874526, 852643, 881642, 863290
854088, 882926, 876238, 890417
896623, 872065, 885441, 895928
898871, 894590, 893413, 893467
907217, 909411, 896356, 902669
903472, 910320, 907217, 909839
901064, 912621, 898175, 901546
905184, 897640, 903204, 897372
887314, 884478, 884264, 872065
873296, 859384, 861418, 848416
861525, 838625, 850075, 821557
827817, 829101, 806094, 789455
767571, 758048, 747454, 726159
710643, 703794, 677845, 672120
646224, 614924, 591382, 581484
563506, 530548, 511286, 488493
464095, 430709, 410698, 396199
371319, 348259, 335364, 314070
295664, 270892, 257569, 254626
225306, 223166, 210646, 198554
184911, 179079, 165060, 162278
146602, 143498, 131085, 123113
113375, 112305, 99036.3, 97003.1
93578.8, 87265.4, 83199, 78009.1
84643.6, 75387.4, 71856.1, 71535.1
71374.6, 68217.9, 60352.7, 60352.7
52862.1, 48100.3, 47244.2, 48528.3
45104, 39807.1, 37934.5, 35098.8
34777.7, 32530.6, 33065.6, 31621
28196.7, 28464.2, 27715.2, 29694.8
30122.9, 26912.6, 28036.2, 27287.1
25628.5, 26163.6, 26859.1, 21669.2
21722.7, 19957.1, 18030.9, 15462.7
12413, 13697.1, 12359.5, 12573.5
11021.9, 10068, 9614, 9455
9383, 9676, 10023, 10200
10390, 10558, 10962, 11165
11218, 11150, 10847, 10168
9697, 9140, 8270, 7335
6694, 5746, 5147, 4251
3773, 3144, 2665, 2529
2266, 2272, 2203, 2279
2544, 2789, 3085, 3308
3610, 3867, 4081, 4057
4118, 4092, 4027, 3830
3559, 3277, 2991, 2589
2244, 1852, 1474, 1245
1014, 687, 564, 445
394, 380, 440, 462
589, 671, 858, 938
1046, 1162, 1311, 1334
1371, 1387, 1424, 1299
1265, 1214, 1131, 972
887, 682, 629, 514
443, 366, 290, 283
310, 305, 332, 411
443, 499, 519, 595
608, 644, 663, 723
635, 648, 627, 550
495, 493, 422, 401
334, 294, 254, 235
269, 277, 314, 345
418, 437, 530, 636
690, 781, 865, 895
903, 981, 966, 928
939, 923, 830, 795
712, 656, 511, 451
396, 296, 221, 173
168, 137, 178, 212
257, 369, 433, 508
641, 778, 876, 976
1174, 1192, 1256, 1333
1354, 1414, 1406, 1319
1316, 1158, 1137, 1051
933, 813, 652, 494
496, 367, 306, 212
205, 172, 166, 225
286, 361, 473, 612
725, 802, 945, 1085
1225, 1313, 1404, 1499
1534, 1584, 1559, 1610
1461, 1499, 1385, 1250
1201, 995, 1019, 773
670, 551, 465, 336
259, 236, 211, 242
234, 291, 389, 447
548, 656, 754, 916
1093, 1140, 1311, 1410
1416, 1534, 1574, 1611
1633, 1656, 1509, 1432
1338, 1225, 1105, 1066
905, 795, 704, 601
450, 391, 324, 280
242, 230, 265, 286
370, 457, 523, 655
759, 937, 1000, 1119
1217, 1283, 1407, 1383
1477, 1501, 1487, 1488
1455, 1355, 1292, 1181
1085, 1011, 867, 790
695, 555, 451, 360
294, 250, 234, 202
211, 277, 314, 384
436, 549, 654, 744
889, 885, 1058, 1159
1159, 1291, 1342, 1320
1344, 1361, 1322, 1316
1137, 1158, 999, 999
875, 770, 656, 579
468, 432, 303, 290
238, 190, 182, 212
235, 276, 353, 426
442, 583, 608, 705
817, 891, 960, 1044
1125, 1197, 1210, 1183
1186, 1154, 1088, 1099
1017, 940, 848, 725
648, 604, 478, 405
313, 289, 222, 223
188, 198, 175, 189
237, 256, 323, 412
440, 538, 577, 684
715, 797, 900, 919
918, 938, 1032, 965
987, 928, 932, 811
828, 754, 670, 606
524, 440, 371, 281
265, 250, 194, 154
167, 187, 154, 191
203, 259, 297, 349
406, 434, 521, 591
634, 746, 713, 741
805, 793, 823, 819
771, 773, 738, 632
623, 608, 499, 450
392, 307, 304, 230
214, 176, 134, 128
109, 115, 131, 175
191, 233, 259, 308
328, 396, 435, 470
521, 542, 609, 579
614, 661, 645, 649
577, 613, 573, 500
502, 455, 372, 366
311, 215, 185, 204
140, 130, 90, 86
93, 90, 102, 129
157, 172, 189, 248
265, 299, 338, 372
403, 445, 484, 480
499, 529, 484, 470
437, 421, 443, 364
353, 298, 283, 240
217, 198, 170, 118
117, 96, 92, 72
63, 77, 84, 87
121, 150, 187, 190
190, 244, 264, 288
320, 279, 371, 358
384, 356, 369, 341
357, 321, 274, 251
283, 254, 230, 144
157, 127, 102, 70
61, 57, 53, 51
57, 67, 72, 75
85, 115, 136, 169
176, 180, 198, 202
258, 245, 266, 253
265, 251, 270, 230
234, 228, 202, 178
168, 136, 135, 90
72, 89, 72, 46
47, 39, 28, 35
34, 48, 35, 48
69, 67, 79, 90
109, 127, 133, 147
169, 194, 171, 190
172, 197, 182, 176
153, 128, 146, 116
114, 90, 89, 74
61, 45, 34, 24
28, 16, 10, 23
17, 21, 19, 31
39, 39, 55, 52
80, 86, 101, 98
117, 100, 118, 117
127, 105, 102, 103
81, 97, 87, 78
69, 61, 52, 52
30, 27, 30, 11
8, 9, 5, 9
16, 13, 16, 23
31, 43, 43, 43
50, 56, 59, 61
84, 69, 70, 80
66, 67, 59, 71
59, 72, 61, 46
34, 42, 36, 22
25, 14, 8, 8
8, 5, 8, 3
7, 7, 11, 12
12, 23, 25, 35
34, 26, 42, 36
39, 43, 53, 38
44, 46, 31, 37
42, 31, 34, 27
20, 18, 12, 12
6, 12, 7, 13
6, 3, 3, 9
8, 9, 9, 10
8, 13, 11, 12
24, 22, 26, 27
23, 28, 18, 31
24, 27, 12, 27
22, 12, 18, 20
9, 10, 19, 10
6, 5, 6, 8
11, 5, 10, 6
6, 7, 6, 11
11, 12, 14, 7
10, 10, 10, 23
11, 10, 13, 6
18, 14, 14, 9
21, 8, 10, 16
6, 8, 5, 7
9, 10, 7, 8
10, 5, 5, 11
7, 14, 7, 8
4, 11, 9, 14
10, 5, 8, 10
10, 7, 11, 8
6, 6, 4, 6
5, 11, 6, 3
10, 6, 7, 10
7, 11, 6, 8
8, 7, 6, 9
14, 6, 12, 17
9, 6, 7, 8
8, 3, 14, 3
6, 3, 1, 6
5, 2, 3, 3
3, 2, 3, 3
5, 1, 11, 7
5, 9, 10, 9
11, 10, 7, 11
7, 10, 10, 15
8, 7, 10, 8
5, 9, 6, 9
0.000000, 4, 4, 5
3, 3, 2, 6
2, 2, 6, 5
4, 4, 6, 19
12, 6, 10, 8
13, 15, 7, 9
13, 15, 13, 13
6, 8, 9, 3
6, 7, 4, 5
3, 4, 2, 1
4, 1, 5, 3
4, 2, 4, 1
5, 9, 3, 5
9, 13, 11, 15
13, 13, 8, 8
18, 12, 12, 9
8, 5, 6, 9
2, 5, 2, 0.000000
2, 0.000000, 4, 2
0.000000, 1, 2, 2
3, 5, 6, 4
2, 3, 7, 6
6, 8, 12, 10
12, 5, 8, 6
5, 6, 6, 6
8, 4, 4, 5
3, 1, 3, 4
2, 0.000000, 0.000000, 3
1, 3, 0.000000, 2
0.000000, 2, 2, 3
4, 3, 5, 8
7, 4, 7, 10
8, 5, 8, 6
9, 8, 8, 6
6, 5, 6, 0.000000
4, 5, 6, 2
1, 3, 0.000000, 3
3, 0.000000, 1, 3
3, 3, 3, 2
0.000000, 0.000000, 5, 4
8, 6, 8, 7
8, 5, 5, 8
9, 4, 9, 4
4, 6, 6, 0.000000
3, 2, 0.000000, 8
3, 2, 3, 0.000000
1, 1, 0.000000, 0.000000
1, 3, 3, 1
2, 5, 3, 6
5, 2, 3, 1
8, 4, 7, 4
3, 5, 4, 5
3, 7, 8, 2
4, 3, 7, 0.000000
3, 1, 2, 0.000000
1, 2, 2, 1
1, 1, 3, 1
4, 3, 5, 4
3, 3, 3, 6
5, 3, 5, 3
8, 6, 6, 5
1, 2, 3, 4
2, 5, 1, 1
4, 0.000000, 0.000000, 1
0.000000, 0.000000, 2, 1
2, 1, 3, 2
4, 2, 2, 1
2, 4, 0.000000, 4
5, 4, 2, 1
2, 4, 1, 3
3, 2, 2, 2
2, 2, 1, 2
2, 4, 2, 0.000000
1, 1, 0.000000, 1
0.000000, 2, 0.000000, 3
2, 0.000000, 1, 3
2, 0.000000, 0.000000, 3
2, 2, 5, 3
0.000000, 4, 4, 1
2, 8, 2, 1
2, 2, 1, 3
2, 0.000000, 1, 1
0.000000, 0.000000, 1, 3
0.000000, 2, 3, 0.000000
1, 1, 1, 2
2, 0.000000, 0.000000, 1
2, 3, 1, 5
3, 3, 2, 2
0.000000, 1, 4, 1
2, 0.000000, 0.000000, 0.000000
0.000000, 2, 0.000000, 2
1, 0.000000, 1, 0.000000
1, 1, 1, 1
0.000000, 0.000000, 2, 1
1, 0.000000, 0.000000, 1
2, 0.000000, 1, 2
3
*END

*EOF