File: 20220926_XRR/20210729-1-5 2/20210729-4_pre_2θ_ω.asc
*TYPE		=  Raw
*CLASS		=  ASCII CLASS
*SAMPLE		=  2V022501 Fe20m VSM
*COMMENT	=
*FNAME		=  20210729-4_pre_2θ_ω.asc
*DATE		=  29-Jul-21 11:21

*GROUP_COUNT	=  1
*GONIO		=  SmartLab(In-plane), 0.000000
*ATTACHMENT	=  χφZクレードル
*ASC		=  0, 0, 0.000000, 0.000000
*I_MONOCHRO	=  Ge(220)x2, 0.000000
*FILTER		=  None
*C_MONOCHRO	=  None, 0.000000
*SLIT_NAME	=  0, 入射スリット
*SLIT_NAME	=  1, 受光スリット1
*SLIT_NAME	=  2, 受光スリット2
*COUNTER	=  SC-70, 0
*POS_FORMAT	=  0
*SCAN_AXIS	=  2Theta/Omega
*MEAS_MODE	=  Continuous Scanning
*TARGET		=  29
*XRAY_CHAR	=  K-ALPHA1
*WAVE_LENGTH1	=  1.54059
*WAVE_LENGTH2	=  1.54441
*THICKNESS	=  0, 0.000000
*MU		=  0, 0.000000
*SCAN_MODE	=  2Theta/Omega
*SPEED_DIM	=  sec./step
*XUNIT		=  deg.
*YUNIT		=  counts
*SCALE_MODE	=  1
*REP_COUNT	=  0
*SE_COUNT	=  0
*STD_MATERIAL	=  Unknown, Unknown, 0.000000, 0.000000, 0.000000, 0.000000, 0.000000, 0.000000
*LATT_CONS	=  0, Unknown, Unknown, 0.000000, 0.000000, 0.000000, 0.000000, 0.000000, 0.000000
*SEC_COUNT	=  1
*TSPEC_SIZE	=  0
*EXTRA_SIZE	=  0
*MEMO		=

*BEGIN
*GROUP		=  0
*START		=  0.000000
*STOP		=  6
*STEP		=  0.004
*OFFSET		=  0.000000
*SPEED		=  0.08
*SLIT_SPEC	=  0, 0.100mm, 0.1, 0.000000
*SLIT_SPEC	=  1, 0.200mm, 0.2, 0.000000
*SLIT_SPEC	=  2, 0.200mm, 0.2, 0.000000
*KV		=  45
*MA		=  200
*LOW		=  0.000000
*HIGH		=  0.000000
*CTEMPER	=  0, 0.000000
*CTEMPER	=  1, 0.000000
*CTEMPER	=  2, 0.000000
*PAREX		=  0, 0.000000
*PAREX		=  1, 0.000000
*PAREX		=  2, 0.000000
*PAREX		=  3, 0.000000
*PAREX		=  4, 0.000000
*PAREX		=  5, 0.000000
*PAREX		=  6, 0.000000
*PAREX		=  7, 0.000000
*PAREX		=  8, 0.000000
*PAREX		=  9, 0.000000
*PAREX		=  10, 0.000000
*PAREX		=  11, 0.000000
*PAREX		=  12, 0.000000
*PAREX		=  13, 0.000000
*PAREX		=  14, 0.000000
*PAREX		=  15, 0.000000
*FULL_SCALE	=  38017756
*INDEX		=  0, 0, 0
*COUNT		=  1501
2534517, 2534517, 2475886.5, 2423119
2067985, 1703637.8, 1232080.1, 797376
430516, 316263, 204065, 166612
158319, 160673, 163669, 175761
182877, 193204, 205242, 213428
221989, 231620, 244996, 263080
267146, 281165, 281111, 294273
311448, 311769, 330442, 342694
350881, 368269, 380415, 381966
398767, 415032, 420222, 427071
435738, 463025, 463400, 480147
469339, 504545, 513694, 510377
534025, 541570, 546171, 563239
580414, 578594, 606149, 612463
631724, 631831, 643228, 658423
670622, 666930, 699514, 690900
697481, 709091, 735362, 744778
756977, 758797, 777898, 773938
795768, 803045, 812140, 827282
845687, 853392, 847935, 857940
883087, 895714, 905880, 901278
919630, 918560, 928512, 957137
956762, 969175, 992717, 992556
995660, 990042, 1014760.7, 1036857.9
1039372.6, 1034771.3, 1061523.4, 1061951.4
1066552.8, 1076879, 1082336.5, 1107001.9
1100260.4, 1110854.3, 1124016.3, 1137285.3
1150393.8, 1145096.9, 1168050.3, 1185439
1175754.8, 1172491, 1186562.6, 1195176.9
1209623, 1195765.4, 1215026.9, 1220377.3
1236589.1, 1237552.1, 1248146, 1255262
1246005.8, 1265267.4, 1272811.4, 1300740.6
1278536.4, 1281211.6, 1292019.4, 1306251.5
1307054.1, 1341029.3, 1321393.3, 1315293.8
1322356.3, 1331024, 1342794.9, 1333324.6
1336856, 1340868.8, 1344881.6, 1358311.1
1350178.5, 1375593, 1356706, 1347824.3
1351355.6, 1361574.9, 1369065.5, 1370724.1
1357294.5, 1362431, 1353709.8, 1354458.9
1358953.1, 1365373.6, 1341457.3, 1347770.8
1341564.3, 1349804, 1328883.9, 1330328.4
1313742.1, 1285224.4, 1305770, 1288006.6
1279231.9, 1274630.5, 1248413.5, 1250874.8
1228028.4, 1201383.3, 1196567.9, 1173133.1
1157777.4, 1131774.4, 1127333.5, 1093625.9
1071100.6, 1056868.5, 1022304.8, 983835
971850, 939320, 905452, 881268
833274, 807325, 767357, 731081
702082, 666020, 622628, 602992
565165, 525304, 509949, 483946
461527, 447295, 417226, 402084
382127, 368965, 360939, 345156
341945, 331138, 332529, 310378
309682, 302031, 290635, 284107
268966, 256660, 251737, 231513
229319, 211823, 188656, 179025
172070, 154146, 149277, 140020
121241, 111449, 102782, 95023.5
85981.3, 80577.3, 74317.3, 66826.7
69930, 60727.3, 64900.6, 58266.1
62974.4, 66612.7, 63188.5, 67736.3
68538.9, 69555.5, 72444.7, 78276.6
75387.4, 78062.6, 84055.1, 79293.2
84162.1, 84590.1, 83841.1, 79453.7
82396.5, 81486.9, 80684.3, 79560.7
79560.7, 76885.5, 72979.7, 66505.7
61636.8, 59710.7, 57517, 55162.8
50240.4, 45318.1, 40395.7, 37988
36008.3, 30497.4, 28357.2, 23006.8
21294.7, 20813.1, 16800.3, 13162
11610.4, 11396.4, 10308, 8890
8342, 8083, 7734, 8197
8333, 8672, 9415, 10236
11333, 12361, 13663, 14630
15966, 17420, 18671, 19735
20776, 21901, 23019, 23586
24508, 25041, 25584, 25576
25762, 26212, 25570, 25580
25181, 24746, 23859, 22877
22249, 21321, 20354, 19107
17581, 16728, 15825, 14394
13229, 12000, 10669, 9557
8531, 7490, 6448, 5494
4565, 3729, 2919, 2483
1894, 1399, 1126, 789
544, 501, 440, 457
527, 764, 948, 1248
1599, 1965, 2317, 2761
3161, 3551, 4010, 4362
4963, 5360, 5765, 6146
6310, 6694, 6915, 7224
7252, 7531, 7508, 7804
7685, 7718, 7596, 7710
7649, 7284, 7447, 7073
6734, 6439, 6284, 5793
5613, 5127, 4822, 4430
4167, 3773, 3567, 3105
2884, 2522, 2291, 1993
1771, 1448, 1286, 1114
948, 872, 742, 617
592, 470, 519, 485
521, 533, 531, 600
785, 819, 884, 1016
1154, 1206, 1366, 1469
1604, 1699, 1880, 1884
2009, 2048, 2151, 2264
2327, 2270, 2364, 2332
2401, 2485, 2421, 2401
2466, 2319, 2285, 2319
2190, 2085, 2083, 1907
1867, 1894, 1742, 1722
1572, 1433, 1363, 1339
1252, 1161, 1171, 1027
965, 957, 808, 822
824, 787, 699, 712
644, 701, 703, 663
749, 674, 718, 733
738, 774, 791, 879
861, 835, 906, 935
969, 908, 969, 966
974, 1042, 1072, 1057
1074, 1108, 982, 1039
1002, 1022, 1000, 963
957, 988, 968, 934
880, 794, 756, 756
646, 622, 640, 649
568, 580, 479, 479
434, 446, 420, 352
344, 417, 342, 324
331, 346, 351, 382
370, 355, 396, 426
411, 427, 455, 453
460, 544, 543, 579
656, 608, 637, 693
694, 743, 716, 724
722, 747, 781, 812
783, 755, 781, 759
759, 761, 737, 757
756, 705, 642, 629
660, 603, 570, 523
512, 470, 403, 381
412, 380, 318, 296
262, 212, 211, 177
190, 155, 140, 91
101, 86, 87, 72
74, 78, 88, 73
91, 110, 140, 141
176, 172, 186, 215
242, 281, 297, 302
347, 353, 339, 429
436, 460, 494, 470
530, 576, 578, 568
551, 560, 600, 586
639, 558, 644, 569
572, 563, 563, 547
523, 512, 493, 468
467, 425, 407, 334
366, 347, 316, 257
250, 237, 180, 182
153, 124, 108, 87
85, 63, 59, 44
25, 24, 15, 16
12, 20, 22, 32
31, 39, 42, 51
72, 103, 91, 130
121, 147, 173, 220
224, 237, 283, 292
305, 344, 364, 366
410, 396, 421, 425
463, 478, 467, 484
466, 520, 455, 449
455, 518, 430, 458
475, 451, 449, 420
388, 421, 342, 340
308, 333, 276, 237
219, 201, 192, 168
152, 142, 124, 123
86, 69, 59, 46
37, 40, 11, 8
16, 9, 9, 14
19, 23, 26, 34
27, 53, 74, 81
115, 107, 143, 155
169, 183, 192, 207
236, 277, 269, 289
289, 331, 338, 344
347, 370, 376, 384
366, 364, 435, 406
433, 418, 405, 415
379, 408, 390, 340
324, 334, 347, 317
305, 289, 264, 242
227, 203, 205, 203
165, 152, 154, 127
107, 98, 79, 68
63, 42, 39, 24
38, 21, 23, 16
21, 20, 13, 34
17, 40, 51, 62
46, 61, 71, 88
118, 132, 157, 158
181, 185, 185, 236
215, 261, 248, 266
309, 321, 307, 289
320, 303, 314, 340
329, 352, 378, 346
333, 338, 343, 305
327, 329, 319, 274
290, 286, 278, 264
211, 215, 201, 164
215, 156, 151, 123
121, 99, 85, 87
82, 71, 50, 53
48, 35, 23, 21
29, 23, 27, 28
32, 26, 29, 39
34, 47, 82, 69
60, 95, 82, 99
114, 124, 140, 162
157, 159, 199, 181
188, 205, 219, 224
267, 240, 252, 246
251, 291, 278, 239
288, 278, 264, 243
245, 254, 257, 268
252, 228, 222, 202
218, 206, 175, 171
180, 168, 131, 154
117, 108, 102, 88
88, 68, 68, 70
58, 36, 40, 29
28, 26, 25, 18
29, 20, 24, 22
41, 33, 39, 46
48, 49, 63, 78
72, 60, 81, 98
110, 99, 124, 125
152, 143, 164, 150
160, 175, 169, 178
164, 191, 196, 199
197, 171, 210, 203
214, 197, 188, 170
199, 188, 149, 145
169, 140, 153, 146
145, 129, 121, 123
115, 116, 103, 97
94, 90, 57, 55
49, 44, 27, 37
35, 24, 35, 30
24, 21, 18, 26
20, 28, 24, 26
30, 26, 28, 40
44, 36, 56, 60
50, 58, 68, 71
70, 93, 100, 93
94, 121, 108, 107
96, 148, 118, 118
123, 111, 135, 139
147, 131, 109, 138
136, 127, 126, 102
119, 104, 113, 102
97, 77, 106, 94
51, 75, 74, 73
52, 53, 38, 40
44, 37, 34, 21
24, 16, 24, 19
18, 17, 18, 18
12, 8, 13, 18
16, 15, 13, 18
22, 33, 29, 23
36, 31, 39, 48
45, 40, 46, 64
63, 72, 67, 63
76, 74, 67, 70
72, 76, 81, 73
71, 86, 79, 73
89, 71, 79, 70
82, 79, 57, 70
66, 61, 53, 52
64, 60, 54, 38
50, 42, 40, 32
24, 20, 21, 20
20, 19, 14, 8
8, 14, 11, 7
16, 8, 10, 6
12, 6, 12, 9
9, 12, 9, 4
14, 18, 25, 15
12, 22, 26, 25
24, 34, 25, 34
35, 31, 28, 40
39, 30, 37, 48
40, 51, 37, 33
42, 47, 60, 37
34, 42, 47, 35
39, 25, 40, 39
22, 32, 27, 25
16, 22, 19, 18
17, 13, 13, 9
13, 12, 8, 3
10, 4, 3, 3
1, 6, 6, 3
6, 1, 0.000000, 3
4, 4, 7, 3
7, 4, 2, 9
13, 11, 7, 7
14, 15, 9, 15
9, 17, 18, 14
19, 25, 16, 14
16, 20, 24, 18
18, 16, 26, 24
19, 15, 19, 17
27, 20, 13, 20
18, 14, 15, 9
14, 13, 12, 15
4, 10, 6, 4
5, 6, 4, 4
4, 6, 0.000000, 4
4, 1, 0.000000, 1
1, 2, 1, 6
1, 1, 3, 1
2, 4, 0.000000, 5
4, 2, 2, 4
6, 3, 4, 8
7, 3, 5, 11
5, 5, 11, 6
6, 11, 7, 10
11, 8, 10, 9
8, 7, 8, 9
10, 6, 5, 9
7, 4, 6, 4
10, 3, 7, 1
4, 6, 3, 1
2, 4, 1, 2
6, 1, 1, 2
0.000000, 0.000000, 1, 1
2, 1, 0.000000, 0.000000
0.000000, 0.000000, 2, 2
2, 0.000000, 1, 1
1, 1, 0.000000, 1
3, 0.000000, 0.000000, 4
3, 1, 3, 1
4, 2, 1, 6
3, 2, 2, 2
2, 4, 2, 2
3, 1, 0.000000, 3
2, 2, 5, 3
3, 2, 0.000000, 3
2, 2, 3, 3
8, 0.000000, 6, 1
2, 2, 1, 0.000000
2, 0.000000, 2, 1
2, 1, 1, 1
0.000000, 2, 0.000000, 0.000000
1, 2, 1, 3
2, 1, 3, 0.000000
0.000000, 0.000000, 2, 0.000000
1, 2, 0.000000, 3
2, 1, 4, 2
0.000000, 3, 1, 2
1, 1, 0.000000, 2
2, 0.000000, 1, 1
2, 1, 1, 2
4, 2, 1, 2
1, 1, 2, 1
0.000000, 0.000000, 1, 1
0.000000, 0.000000, 1, 0.000000
0.000000, 5, 2, 1
1, 0.000000, 1, 1
0.000000, 0.000000, 1, 3
5, 2, 3, 1
0.000000, 0.000000, 3, 2
2, 2, 2, 1
2, 1, 2, 0.000000
2, 2, 1, 1
2
*END

*EOF