File: 20220926_XRR/20210729-1-5 2/20210729-4_2θ_ω.asc
*TYPE		=  Raw
*CLASS		=  ASCII CLASS
*SAMPLE		=  2V022501 Fe20m VSM
*COMMENT	=
*FNAME		=  20210729-4_2θ_ω.asc
*DATE		=  29-Jul-21 11:36

*GROUP_COUNT	=  1
*GONIO		=  SmartLab(In-plane), 0.000000
*ATTACHMENT	=  χφZクレードル
*ASC		=  0, 0, 0.000000, 0.000000
*I_MONOCHRO	=  Ge(220)x2, 0.000000
*FILTER		=  None
*C_MONOCHRO	=  None, 0.000000
*SLIT_NAME	=  0, 入射スリット
*SLIT_NAME	=  1, 受光スリット1
*SLIT_NAME	=  2, 受光スリット2
*COUNTER	=  SC-70, 0
*POS_FORMAT	=  0
*SCAN_AXIS	=  2Theta/Omega
*MEAS_MODE	=  Continuous Scanning
*TARGET		=  29
*XRAY_CHAR	=  K-ALPHA1
*WAVE_LENGTH1	=  1.54059
*WAVE_LENGTH2	=  1.54441
*THICKNESS	=  0, 0.000000
*MU		=  0, 0.000000
*SCAN_MODE	=  2Theta/Omega
*SPEED_DIM	=  sec./step
*XUNIT		=  deg.
*YUNIT		=  counts
*SCALE_MODE	=  1
*REP_COUNT	=  0
*SE_COUNT	=  0
*STD_MATERIAL	=  Unknown, Unknown, 0.000000, 0.000000, 0.000000, 0.000000, 0.000000, 0.000000
*LATT_CONS	=  0, Unknown, Unknown, 0.000000, 0.000000, 0.000000, 0.000000, 0.000000, 0.000000
*SEC_COUNT	=  1
*TSPEC_SIZE	=  0
*EXTRA_SIZE	=  0
*MEMO		=

*BEGIN
*GROUP		=  0
*START		=  0.000000
*STOP		=  6
*STEP		=  0.004
*OFFSET		=  0.000000
*SPEED		=  0.6
*SLIT_SPEC	=  0, 0.100mm, 0.1, 0.000000
*SLIT_SPEC	=  1, 0.200mm, 0.2, 0.000000
*SLIT_SPEC	=  2, 0.200mm, 0.2, 0.000000
*KV		=  45
*MA		=  200
*LOW		=  0.000000
*HIGH		=  0.000000
*CTEMPER	=  0, 0.000000
*CTEMPER	=  1, 0.000000
*CTEMPER	=  2, 0.000000
*PAREX		=  0, 0.000000
*PAREX		=  1, 0.000000
*PAREX		=  2, 0.000000
*PAREX		=  3, 0.000000
*PAREX		=  4, 0.000000
*PAREX		=  5, 0.000000
*PAREX		=  6, 0.000000
*PAREX		=  7, 0.000000
*PAREX		=  8, 0.000000
*PAREX		=  9, 0.000000
*PAREX		=  10, 0.000000
*PAREX		=  11, 0.000000
*PAREX		=  12, 0.000000
*PAREX		=  13, 0.000000
*PAREX		=  14, 0.000000
*PAREX		=  15, 0.000000
*FULL_SCALE	=  39305956
*INDEX		=  0, 0, 0
*COUNT		=  1501
19377414, 19652978, 19085936, 17999594
15867953, 12970764, 9219243, 5952681
3443291.5, 2094047.4, 1466336.1, 1266604.9
1210693, 1210800, 1235733, 1318343.5
1379284.8, 1449214.8, 1512082.3, 1586025
1662268.5, 1729576.8, 1821497, 1902074.3
1975161, 2065101.6, 2158359.5, 2239311.3
2327753.8, 2400305.5, 2477030.5, 2550491.8
2651721.8, 2728072.3, 2811966.8, 2885642
2971944.3, 3061189.3, 3163649.8, 3215495.5
3323360, 3403830.3, 3484889, 3569693.3
3648879.5, 3716722.8, 3821430.5, 3881408.8
3984243.8, 4049840, 4148020, 4245879.5
4297511, 4421373, 4472630, 4542025
4651387.5, 4707406.5, 4808743.5, 4866046.5
4981722.5, 5032979.5, 5140309, 5207564
5284289, 5371928.5, 5434528.5, 5555020
5617727, 5685945, 5769304.5, 5870213.5
5927356, 5984766, 6098408.5, 6150896.5
6217990.5, 6308519.5, 6369086.5, 6472296
6539872, 6617506.5, 6685831.5, 6789790
6822748.5, 6950784, 6993106, 7043614
7150622.5, 7221194.5, 7313114.5, 7338529
7434141, 7557682.5, 7583899.5, 7667045
7729912.5, 7804015.5, 7891174, 7926379.5
8015410.5, 8041735, 8139487, 8184323.5
8295665.5, 8346762, 8352915, 8460619
8538628, 8575065, 8655909, 8692667
8709628, 8836754, 8892291, 9018454
9008556, 9089615, 9106896, 9206040
9232899, 9273883, 9331132, 9360078
9437873, 9439693, 9510265, 9536910
9635625, 9679712, 9675004, 9776662
9756491, 9786667, 9873398, 9897742
9895120, 9994478, 9946645, 10007051
10048945, 10080887, 10060234, 10121443
10123048, 10136157, 10145306, 10216788
10152475, 10134017, 10170827, 10201057
10152475, 10166494, 10110421, 10131983
10106569, 10060020, 10030646, 10024065
9983991, 9977196, 9915345, 9857293
9778856, 9812028, 9682976, 9683939
9554245, 9481747, 9400367, 9304487
9177308, 9097105, 8918990, 8853019
8707862, 8556445, 8354788, 8239112
8000269, 7831088.5, 7693957.5, 7428951
7214399.5, 7030345, 6740619.5, 6531739
6270853, 5973851, 5759994.5, 5493383
5231052, 4988143, 4713024.5, 4465621
4238174.5, 4043794, 3819718.3, 3627317.3
3440159.5, 3264077.3, 3122879.8, 2993025
2873389.5, 2792705.3, 2696076.8, 2633155.8
2533691.5, 2516944.5, 2422830.8, 2367400.3
2302446.3, 2250654.3, 2185646.5, 2106835
2025776, 1943647.1, 1856328.3, 1759004.1
1673878.9, 1558256.4, 1471793.5, 1366711.3
1271099.3, 1171099.9, 1084530.1, 995874
911979, 846169, 773029, 705292
649809, 603099, 561099, 530173
513908, 477257, 478809, 468322
463988, 467092, 479879, 497803
514068, 530013, 532474, 563934
559012, 581270, 597535, 606417
622628, 620221, 637717, 627551
613800, 620970, 606310, 592399
580628, 554090, 534346, 513105
488868, 472121, 428087, 404545
377954, 347135, 318457, 294166
255001, 236435, 205831, 182235
161583, 146869, 123755, 108828
95772.5, 80898.4, 75054, 68258
62770, 59794, 58058, 59347
61657, 65305, 70803, 77108
84558, 92897, 100804, 110561
119100, 129415, 138717, 146001
155217, 161880, 170532, 176668
181684, 186679, 189879, 192655
194052, 193616, 192747, 190886
187607, 183924, 178972, 173354
166686, 158940, 151809, 143542
135495, 126057, 116757, 108061
99092, 90231, 80937, 72313
63439, 55651, 48017, 41021
34397, 28451, 23205, 18201
13934, 11027, 7954, 5994
4503, 3457, 3211, 3517
4306, 5637, 7170, 9300
11796, 14446, 17264, 20364
23217, 26551, 30268, 33196
36738, 39654, 42564, 45382
47957, 49822, 51896, 54231
55578, 56549, 58034, 58552
58826, 58141, 57927, 57156
56591, 55310, 53688, 52430
50203, 48458, 46057, 44031
41367, 38806, 36147, 33708
31093, 28423, 25919, 23824
21368, 18773, 16973, 14750
13052, 11670, 9757, 8554
7250, 6272, 5381, 4616
4283, 3847, 3729, 3661
3769, 3895, 4372, 4896
5371, 5974, 6805, 7460
8251, 9231, 10038, 10767
11861, 12637, 13149, 14021
14648, 15194, 16140, 16322
16696, 17291, 17552, 17849
17957, 17806, 18211, 17845
17583, 17291, 16904, 16801
16422, 15864, 15136, 14723
14395, 13665, 13191, 12353
11906, 11220, 10778, 9992
9396, 9025, 8243, 7844
7354, 6927, 6575, 6217
6038, 5822, 5548, 5380
5151, 5270, 5262, 5141
5314, 5245, 5290, 5389
5589, 6012, 5838, 6121
6298, 6431, 6760, 6913
7006, 7097, 7293, 7387
7675, 7602, 7783, 7769
7674, 8012, 7721, 7728
7696, 7530, 7352, 7256
7204, 7068, 6768, 6484
6364, 5997, 5827, 5558
5219, 5048, 4773, 4356
4262, 4027, 3819, 3606
3477, 3159, 3031, 2950
2825, 2678, 2632, 2442
2550, 2524, 2626, 2579
2603, 2758, 2813, 2935
3067, 3164, 3349, 3483
3789, 3813, 4078, 4180
4321, 4656, 4907, 4908
5037, 5235, 5284, 5333
5631, 5729, 5908, 5711
5809, 5792, 5650, 5776
5754, 5563, 5413, 5313
5288, 5017, 4961, 4652
4609, 4434, 4222, 3874
3726, 3493, 3319, 2969
2809, 2575, 2292, 2238
1975, 1760, 1551, 1410
1235, 1118, 974, 813
730, 695, 639, 619
613, 558, 663, 640
700, 798, 914, 1053
1143, 1252, 1325, 1590
1731, 1989, 2043, 2294
2552, 2622, 2792, 3055
3247, 3240, 3520, 3625
3734, 3877, 3955, 4107
4297, 4249, 4271, 4366
4530, 4367, 4512, 4381
4270, 4309, 4187, 4111
3788, 3850, 3629, 3508
3369, 3215, 2985, 2830
2658, 2478, 2211, 2062
1963, 1790, 1438, 1377
1172, 1068, 918, 700
628, 549, 406, 320
267, 186, 141, 110
91, 120, 130, 164
201, 259, 372, 457
609, 666, 816, 925
1078, 1206, 1360, 1544
1615, 1817, 2010, 2168
2248, 2502, 2498, 2797
2892, 2963, 3114, 3153
3096, 3408, 3440, 3428
3439, 3567, 3445, 3571
3424, 3436, 3287, 3284
3221, 3193, 3043, 3056
2900, 2697, 2586, 2546
2333, 2133, 2053, 1847
1770, 1582, 1382, 1286
1088, 954, 892, 733
625, 488, 412, 321
263, 181, 152, 112
83, 72, 91, 79
121, 179, 186, 237
317, 375, 457, 540
730, 847, 898, 1037
1152, 1344, 1418, 1561
1591, 1791, 1943, 2126
2195, 2292, 2511, 2491
2612, 2722, 2652, 2862
2806, 2912, 2929, 2950
2934, 3056, 2881, 2932
2950, 2818, 2790, 2738
2507, 2608, 2399, 2290
2151, 2058, 1939, 1846
1697, 1600, 1478, 1353
1198, 1102, 970, 836
786, 653, 571, 519
442, 317, 288, 231
162, 154, 136, 123
114, 149, 143, 193
242, 266, 338, 411
460, 593, 601, 744
791, 900, 1030, 1160
1304, 1329, 1499, 1510
1662, 1723, 1924, 1895
1896, 1960, 2174, 2249
2305, 2237, 2353, 2384
2497, 2410, 2397, 2448
2354, 2388, 2380, 2301
2217, 2192, 2198, 2105
1991, 1895, 1838, 1802
1622, 1539, 1490, 1370
1300, 1136, 1063, 974
891, 784, 674, 618
514, 483, 384, 360
309, 262, 226, 213
167, 171, 178, 186
170, 190, 226, 258
314, 357, 410, 428
526, 643, 674, 738
785, 841, 1023, 1105
1163, 1199, 1349, 1429
1501, 1543, 1566, 1686
1753, 1793, 1783, 1856
1940, 1889, 1903, 1886
1979, 1853, 1900, 1918
1896, 1872, 1755, 1707
1714, 1685, 1574, 1500
1496, 1401, 1352, 1271
1200, 1141, 1072, 962
878, 839, 728, 701
590, 514, 486, 414
356, 325, 266, 274
232, 234, 176, 174
161, 187, 196, 214
215, 232, 257, 302
317, 378, 386, 498
538, 603, 608, 686
694, 799, 851, 911
956, 1066, 1104, 1143
1227, 1195, 1246, 1286
1299, 1406, 1334, 1373
1397, 1368, 1408, 1384
1366, 1388, 1410, 1395
1295, 1306, 1266, 1201
1186, 1109, 1083, 1041
1002, 936, 771, 853
721, 703, 650, 605
589, 513, 488, 407
367, 354, 266, 256
231, 230, 173, 174
166, 146, 168, 149
147, 148, 175, 190
203, 224, 234, 271
297, 306, 352, 397
402, 473, 516, 539
581, 594, 644, 672
723, 821, 752, 801
854, 829, 893, 945
928, 883, 1004, 890
893, 888, 882, 886
899, 853, 858, 813
805, 799, 754, 720
686, 738, 586, 636
551, 613, 491, 469
424, 399, 341, 305
295, 279, 256, 240
198, 185, 155, 137
121, 119, 113, 106
108, 97, 104, 94
111, 103, 122, 151
166, 184, 189, 188
222, 227, 238, 286
289, 330, 354, 356
405, 396, 424, 427
462, 503, 483, 519
533, 494, 553, 525
487, 563, 567, 532
521, 515, 534, 522
498, 502, 454, 446
454, 417, 417, 371
387, 353, 316, 326
286, 300, 250, 212
191, 198, 160, 149
140, 126, 123, 92
93, 89, 80, 70
51, 60, 48, 54
55, 56, 53, 79
76, 92, 83, 89
117, 119, 120, 142
148, 146, 167, 166
180, 209, 204, 216
221, 215, 241, 251
253, 252, 309, 247
265, 289, 278, 255
284, 299, 264, 293
284, 266, 258, 267
243, 229, 246, 222
194, 209, 191, 174
190, 157, 138, 121
108, 119, 104, 83
76, 80, 65, 55
57, 50, 30, 39
40, 27, 16, 25
18, 20, 25, 25
25, 32, 36, 41
32, 36, 46, 68
76, 63, 65, 75
76, 90, 102, 104
89, 109, 137, 114
115, 126, 143, 118
122, 133, 149, 135
143, 141, 116, 149
147, 148, 121, 126
112, 128, 112, 112
95, 97, 82, 84
74, 83, 68, 63
67, 68, 51, 50
34, 41, 32, 26
19, 24, 17, 23
15, 8, 19, 4
4, 6, 2, 10
12, 10, 15, 10
15, 21, 14, 15
16, 28, 25, 24
29, 28, 36, 38
41, 40, 45, 65
41, 50, 36, 65
67, 57, 59, 53
50, 55, 69, 66
60, 45, 55, 51
55, 51, 55, 59
65, 52, 49, 32
40, 31, 36, 35
30, 32, 26, 27
23, 17, 19, 15
20, 6, 11, 4
2, 4, 5, 7
5, 5, 4, 4
1, 6, 3, 3
7, 4, 6, 5
13, 11, 6, 11
7, 8, 21, 16
17, 11, 19, 15
18, 17, 18, 22
17, 19, 24, 16
23, 28, 25, 24
19, 19, 14, 18
23, 25, 23, 19
13, 13, 21, 16
14, 12, 18, 14
18, 7, 9, 9
13, 14, 12, 13
5, 10, 2, 3
15, 4, 9, 9
6, 9, 7, 11
3, 7, 8, 4
5, 5, 10, 6
5, 9, 10, 5
13, 6, 11, 7
11, 5, 15, 7
8, 10, 8, 9
7, 6, 14, 7
10, 9, 10, 5
7, 5, 6, 14
7, 8, 10, 9
7, 5, 2, 6
5, 5, 3, 8
7, 5, 6, 7
5, 4, 4, 10
6, 13, 12, 12
8, 12, 10, 10
9, 15, 11, 17
11, 9, 5, 9
8, 13, 11, 14
6, 11, 14, 12
14, 11, 9, 16
12
*END

*EOF