File: 20220926_XRR/20210729-1-5 2/20210729-2_pre_2θ_ω.asc
*TYPE		=  Raw
*CLASS		=  ASCII CLASS
*SAMPLE		=  1V020301 18.5m VSM
*COMMENT	=
*FNAME		=  20210729-2_pre_2θ_ω.asc
*DATE		=  29-Jul-21 10:25

*GROUP_COUNT	=  1
*GONIO		=  SmartLab(In-plane), 0.000000
*ATTACHMENT	=  χφZクレードル
*ASC		=  0, 0, 0.000000, 0.000000
*I_MONOCHRO	=  Ge(220)x2, 0.000000
*FILTER		=  None
*C_MONOCHRO	=  None, 0.000000
*SLIT_NAME	=  0, 入射スリット
*SLIT_NAME	=  1, 受光スリット1
*SLIT_NAME	=  2, 受光スリット2
*COUNTER	=  SC-70, 0
*POS_FORMAT	=  0
*SCAN_AXIS	=  2Theta/Omega
*MEAS_MODE	=  Continuous Scanning
*TARGET		=  29
*XRAY_CHAR	=  K-ALPHA1
*WAVE_LENGTH1	=  1.54059
*WAVE_LENGTH2	=  1.54441
*THICKNESS	=  0, 0.000000
*MU		=  0, 0.000000
*SCAN_MODE	=  2Theta/Omega
*SPEED_DIM	=  sec./step
*XUNIT		=  deg.
*YUNIT		=  counts
*SCALE_MODE	=  1
*REP_COUNT	=  0
*SE_COUNT	=  0
*STD_MATERIAL	=  Unknown, Unknown, 0.000000, 0.000000, 0.000000, 0.000000, 0.000000, 0.000000
*LATT_CONS	=  0, Unknown, Unknown, 0.000000, 0.000000, 0.000000, 0.000000, 0.000000, 0.000000
*SEC_COUNT	=  1
*TSPEC_SIZE	=  0
*EXTRA_SIZE	=  0
*MEMO		=  600 120mA 150V -30deg phi440(4t) ellpse

*BEGIN
*GROUP		=  0
*START		=  0.000000
*STOP		=  6
*STEP		=  0.004
*OFFSET		=  0.000000
*SPEED		=  0.08
*SLIT_SPEC	=  0, 0.100mm, 0.1, 0.000000
*SLIT_SPEC	=  1, 0.200mm, 0.2, 0.000000
*SLIT_SPEC	=  2, 0.200mm, 0.2, 0.000000
*KV		=  45
*MA		=  200
*LOW		=  0.000000
*HIGH		=  0.000000
*CTEMPER	=  0, 0.000000
*CTEMPER	=  1, 0.000000
*CTEMPER	=  2, 0.000000
*PAREX		=  0, 0.000000
*PAREX		=  1, 0.000000
*PAREX		=  2, 0.000000
*PAREX		=  3, 0.000000
*PAREX		=  4, 0.000000
*PAREX		=  5, 0.000000
*PAREX		=  6, 0.000000
*PAREX		=  7, 0.000000
*PAREX		=  8, 0.000000
*PAREX		=  9, 0.000000
*PAREX		=  10, 0.000000
*PAREX		=  11, 0.000000
*PAREX		=  12, 0.000000
*PAREX		=  13, 0.000000
*PAREX		=  14, 0.000000
*PAREX		=  15, 0.000000
*FULL_SCALE	=  46234416
*INDEX		=  0, 0, 0
*COUNT		=  1501
2988485.5, 3082294.5, 2881275.3, 2692819.8
2268166.8, 1890418, 1367768.1, 879459
510086, 347082, 233760, 198982
194060, 185820, 201657, 206847
214980, 222738, 245370, 253182
263401, 278971, 276991, 301015
308826, 314872, 330067, 353128
353716, 366450, 377312, 391062
402298, 410645, 422523, 439109
454304, 468750, 479505, 493897
502511, 511019, 521345, 521666
547990, 555106, 583463, 589081
596197, 607326, 622147, 641783
644940, 658369, 673725, 681430
701601, 712462, 712676, 730546
751520, 746758, 764361, 778272
792076, 800423, 811124, 827068
828192, 840979, 858528, 882284
883675, 908234, 900743, 911765
922894, 931722, 947559, 969710
974633, 989132, 1003043.3, 1003150.3
1034236.2, 1022518.8, 1052160.1, 1044187.9
1064573.1, 1068853.4, 1071742.6, 1095017
1097478.1, 1111175.3, 1104166.1, 1151249.9
1137927.4, 1153711.1, 1156279.3, 1157349.4
1182389.4, 1187686.3, 1186616.1, 1210425.5
1223320, 1224711.1, 1226423.3, 1256653.1
1236856.6, 1251891.3, 1279445.9, 1259809.9
1268905.6, 1292072.9, 1300205.6, 1303041.3
1301917.8, 1339905.6, 1329632.9, 1321660.8
1346219.1, 1331077.5, 1349375.9, 1350232
1383832.6, 1368476.9, 1380996.9, 1380140.9
1403575.6, 1419466.4, 1377733.1, 1410424.3
1401810, 1421820.6, 1402505.6, 1400311.9
1421178.5, 1419627, 1407374.5, 1422997.8
1433377.5, 1420804, 1427652.6, 1422997.8
1431290.9, 1450766.4, 1445469.5, 1440119
1425030.9, 1439423.5, 1450391.9, 1438567.4
1446860.6, 1430113.8, 1426101, 1427010.5
1421606.6, 1414276.5, 1417112.3, 1417593.8
1381906.5, 1376074.5, 1379177.8, 1371045.1
1366176.3, 1352907.3, 1315935.8, 1324710.5
1321232.8, 1286669, 1281800.1, 1255155
1260023.9, 1213047.3, 1223427, 1196567.9
1162485.8, 1144133.9, 1137552.8, 1093411.9
1062646.9, 1038516.5, 991165, 972439
937608, 917276, 875168, 837608
809733, 781643, 730332, 690044
668910, 643388, 597000, 570729
546545, 519847, 488547, 454144
428087, 412357, 387103, 361474
344353, 334829, 311448, 298607
289458, 278917, 260458, 258158
237773, 232315, 222203, 218297
203209, 190528, 181968, 178758
159282, 157730, 149972, 137934
134777, 121776, 118833, 117977
114071, 111984, 106045, 104280
102086, 104119, 101818, 96682.1
96200.6, 93953.4, 92829.8, 92027.2
86783.8, 84162.1, 77848.6, 75119.9
72658.7, 65114.6, 61155.3, 58373.1
52220.1, 53397.2, 45425.1, 45960.1
42321.8, 41626.3, 37345.9, 38309
38897.6, 38041.5, 39539.6, 41572.8
42268.3, 43017.4, 42482.3, 44355
43980.5, 41091.2, 39967.6, 41679.8
41037.7, 38255.5, 36757.4, 33065.6
33440.1, 31835, 26698.6, 24451.4
23755.9, 18673, 18887, 17816.9
15783.7, 14874.2, 13055, 12787.5
12894.5, 12413, 14713.7, 14553.1
14767.2, 15676.7, 16372.3, 18137.9
19368.5, 20064.1, 18030.9, 20224.6
18673, 20492.1, 19154.5, 18405.4
18673, 17602.9, 15890.7, 14553.1
13001.5, 12948, 12627, 10692
9529, 8309, 7037, 6207
5295, 4765, 4166, 3982
3831, 3835, 3948, 4332
4854, 5429, 5979, 6559
7149, 7592, 8170, 8624
9113, 9213, 9375, 9236
9415, 8947, 8663, 8226
7795, 7176, 6422, 5750
5067, 4307, 3702, 3105
2567, 2077, 1650, 1332
1147, 989, 868, 882
942, 1185, 1440, 1700
2025, 2418, 2546, 3023
3267, 3607, 3691, 3936
4123, 4228, 4090, 4114
3960, 3887, 3607, 3367
3022, 2844, 2432, 2160
1814, 1514, 1312, 1014
807, 563, 451, 393
326, 334, 329, 395
496, 628, 806, 863
1033, 1191, 1324, 1511
1629, 1755, 1863, 1863
1908, 1977, 1747, 1849
1762, 1602, 1508, 1410
1253, 1105, 943, 873
763, 611, 498, 443
412, 338, 314, 333
336, 397, 419, 489
556, 635, 708, 801
906, 962, 1121, 1197
1185, 1161, 1186, 1217
1166, 1142, 1098, 1031
937, 845, 788, 735
602, 533, 441, 362
316, 249, 228, 200
213, 201, 265, 317
358, 438, 458, 580
670, 746, 786, 875
927, 970, 1014, 1125
1114, 1147, 1092, 1104
1042, 1039, 930, 924
871, 695, 647, 592
455, 340, 301, 300
195, 153, 142, 112
113, 108, 161, 189
233, 283, 326, 424
545, 628, 694, 734
783, 944, 909, 987
1018, 1058, 1031, 1129
1054, 1090, 974, 894
920, 798, 756, 716
652, 556, 483, 360
313, 237, 182, 147
99, 115, 90, 83
91, 116, 174, 221
279, 333, 414, 440
540, 644, 673, 756
824, 849, 916, 900
987, 981, 949, 923
923, 939, 828, 820
768, 710, 647, 580
479, 390, 348, 286
252, 178, 165, 122
78, 63, 70, 90
113, 111, 146, 187
260, 335, 339, 429
504, 534, 605, 644
686, 733, 758, 783
814, 761, 832, 803
801, 831, 765, 742
724, 611, 582, 483
446, 404, 334, 277
237, 164, 150, 116
98, 78, 63, 64
83, 115, 142, 121
202, 240, 301, 362
393, 435, 487, 547
565, 584, 632, 690
688, 730, 727, 747
759, 653, 701, 679
646, 553, 544, 481
452, 411, 348, 292
269, 204, 169, 127
129, 88, 60, 71
65, 92, 96, 118
144, 177, 211, 287
291, 344, 384, 440
477, 487, 514, 584
595, 583, 658, 608
644, 605, 664, 600
602, 592, 509, 511
496, 421, 341, 339
279, 235, 185, 143
143, 116, 92, 90
86, 83, 110, 106
130, 132, 176, 197
249, 257, 269, 346
378, 427, 463, 481
504, 515, 566, 593
582, 555, 582, 591
557, 535, 516, 507
494, 407, 369, 344
278, 245, 212, 187
164, 146, 125, 113
94, 88, 77, 103
105, 108, 141, 172
176, 235, 260, 249
313, 326, 395, 407
413, 461, 477, 476
521, 522, 492, 516
522, 494, 459, 467
405, 401, 341, 330
296, 294, 236, 165
178, 126, 120, 114
87, 79, 81, 77
65, 72, 101, 119
131, 152, 177, 184
243, 219, 287, 298
327, 353, 381, 365
377, 391, 440, 402
440, 421, 399, 385
349, 324, 290, 291
241, 233, 224, 203
181, 144, 110, 94
94, 80, 63, 67
66, 65, 67, 75
93, 128, 115, 126
154, 182, 203, 195
231, 256, 281, 293
319, 313, 356, 315
331, 335, 337, 307
314, 307, 281, 258
229, 248, 182, 178
129, 127, 128, 115
81, 68, 59, 71
42, 45, 52, 46
50, 50, 71, 91
100, 119, 132, 148
173, 161, 217, 221
191, 233, 235, 250
269, 271, 274, 234
257, 224, 239, 222
190, 194, 173, 175
137, 120, 90, 91
85, 68, 57, 61
39, 32, 33, 30
27, 42, 49, 34
60, 63, 86, 82
106, 118, 151, 129
135, 183, 152, 182
181, 173, 198, 221
162, 199, 209, 186
175, 188, 162, 145
132, 93, 103, 104
90, 70, 61, 53
30, 23, 29, 23
22, 18, 19, 19
25, 31, 35, 41
60, 72, 80, 81
93, 121, 121, 106
140, 141, 150, 128
161, 146, 143, 148
126, 121, 112, 122
108, 131, 102, 97
73, 64, 46, 45
39, 30, 19, 19
16, 14, 14, 14
20, 22, 26, 24
28, 39, 65, 44
60, 73, 88, 71
90, 75, 93, 100
113, 97, 99, 119
96, 107, 113, 104
91, 85, 73, 77
62, 66, 59, 49
39, 29, 20, 23
20, 15, 19, 9
12, 13, 15, 13
13, 25, 27, 36
35, 34, 47, 38
68, 58, 64, 67
71, 90, 72, 76
60, 83, 57, 74
63, 70, 50, 50
48, 44, 40, 35
30, 34, 16, 14
18, 14, 7, 6
7, 6, 6, 5
8, 12, 13, 9
17, 23, 28, 30
21, 40, 30, 43
44, 38, 51, 50
56, 36, 60, 45
51, 50, 37, 37
49, 45, 30, 24
33, 24, 18, 10
11, 8, 10, 10
4, 3, 4, 2
4, 1, 4, 6
3, 11, 12, 15
16, 13, 18, 27
31, 31, 23, 49
34, 38, 34, 31
37, 36, 30, 23
35, 19, 30, 20
22, 20, 13, 12
6, 8, 5, 3
5, 4, 5, 4
1, 1, 2, 7
1, 12, 11, 11
11, 16, 14, 15
12, 17, 10, 14
26, 24, 16, 13
17, 19, 15, 17
16, 15, 18, 18
13, 20, 14, 14
7, 6, 6, 3
5, 4, 3, 4
4, 4, 4, 2
1, 3, 2, 5
8, 6, 2, 5
10, 10, 4, 8
12, 15, 5, 10
8, 17, 12, 7
16, 10, 7, 12
10, 4, 5, 5
11, 4, 6, 6
6, 6, 1, 10
4, 5, 7, 2
2, 4, 3, 0.000000
3, 1, 1, 2
2, 4, 1, 3
6, 6, 10, 3
2, 7, 2, 6
5, 5, 9, 8
10, 6, 13, 5
7, 7, 5, 3
4, 4, 5, 4
7, 6, 4, 5
4, 3, 5, 5
3, 1, 3, 3
5, 3, 2, 2
2, 2, 7, 3
2, 1, 3, 5
3, 1, 3, 2
2, 5, 4, 6
4, 5, 4, 4
8, 3, 1, 1
6, 1, 6, 5
8, 3, 5, 5
3, 7, 6, 4
2, 1, 3, 0.000000
3, 2, 5, 2
4, 3, 1, 1
2, 2, 3, 4
1, 1, 0.000000, 2
4, 1, 4, 0.000000
5, 3, 5, 8
4, 1, 4, 5
4, 5, 6, 1
1, 3, 1, 7
1, 3, 5, 1
1, 1, 3, 2
0.000000, 3, 1, 1
0.000000, 1, 3, 0.000000
2, 2, 3, 0.000000
2, 3, 3, 2
2, 4, 3, 1
3, 5, 5, 0.000000
3, 5, 2, 3
1, 4, 4, 6
2, 2, 5, 3
2, 1, 4, 1
3, 5, 6, 3
1, 0.000000, 4, 1
0.000000, 2, 0.000000, 0.000000
1, 1, 2, 1
1, 0.000000, 4, 1
3, 2, 3, 1
6, 7, 2, 2
2, 4, 4, 8
2, 2, 5, 4
6, 4, 4, 6
1, 5, 2, 0.000000
7, 2, 2, 2
2, 1, 1, 0.000000
1, 4, 0.000000, 0.000000
0.000000, 1, 3, 2
6, 3, 0.000000, 1
3, 1, 5, 2
1, 4, 4, 2
3, 4, 3, 3
6, 8, 4, 5
3, 1, 1, 4
3, 2, 2, 3
0.000000, 0.000000, 3, 1
0.000000, 1, 0.000000, 3
0.000000
*END

*EOF