File: 20220926_XRR/20210729-1-5 2/20210729-3_pre_2θ_ω.asc
*TYPE		=  Raw
*CLASS		=  ASCII CLASS
*SAMPLE		=  1V090203 Fe35h VSM
*COMMENT	=
*FNAME		=  20210729-3_pre_2θ_ω.asc
*DATE		=  29-Jul-21 10:48

*GROUP_COUNT	=  1
*GONIO		=  SmartLab(In-plane), 0.000000
*ATTACHMENT	=  χφZクレードル
*ASC		=  0, 0, 0.000000, 0.000000
*I_MONOCHRO	=  Ge(220)x2, 0.000000
*FILTER		=  None
*C_MONOCHRO	=  None, 0.000000
*SLIT_NAME	=  0, 入射スリット
*SLIT_NAME	=  1, 受光スリット1
*SLIT_NAME	=  2, 受光スリット2
*COUNTER	=  SC-70, 0
*POS_FORMAT	=  0
*SCAN_AXIS	=  2Theta/Omega
*MEAS_MODE	=  Continuous Scanning
*TARGET		=  29
*XRAY_CHAR	=  K-ALPHA1
*WAVE_LENGTH1	=  1.54059
*WAVE_LENGTH2	=  1.54441
*THICKNESS	=  0, 0.000000
*MU		=  0, 0.000000
*SCAN_MODE	=  2Theta/Omega
*SPEED_DIM	=  sec./step
*XUNIT		=  deg.
*YUNIT		=  counts
*SCALE_MODE	=  1
*REP_COUNT	=  0
*SE_COUNT	=  0
*STD_MATERIAL	=  Unknown, Unknown, 0.000000, 0.000000, 0.000000, 0.000000, 0.000000, 0.000000
*LATT_CONS	=  0, Unknown, Unknown, 0.000000, 0.000000, 0.000000, 0.000000, 0.000000, 0.000000
*SEC_COUNT	=  1
*TSPEC_SIZE	=  0
*EXTRA_SIZE	=  0
*MEMO		=

*BEGIN
*GROUP		=  0
*START		=  0.000000
*STOP		=  6
*STEP		=  0.004
*OFFSET		=  0.000000
*SPEED		=  0.08
*SLIT_SPEC	=  0, 0.100mm, 0.1, 0.000000
*SLIT_SPEC	=  1, 0.200mm, 0.2, 0.000000
*SLIT_SPEC	=  2, 0.200mm, 0.2, 0.000000
*KV		=  45
*MA		=  200
*LOW		=  0.000000
*HIGH		=  0.000000
*CTEMPER	=  0, 0.000000
*CTEMPER	=  1, 0.000000
*CTEMPER	=  2, 0.000000
*PAREX		=  0, 0.000000
*PAREX		=  1, 0.000000
*PAREX		=  2, 0.000000
*PAREX		=  3, 0.000000
*PAREX		=  4, 0.000000
*PAREX		=  5, 0.000000
*PAREX		=  6, 0.000000
*PAREX		=  7, 0.000000
*PAREX		=  8, 0.000000
*PAREX		=  9, 0.000000
*PAREX		=  10, 0.000000
*PAREX		=  11, 0.000000
*PAREX		=  12, 0.000000
*PAREX		=  13, 0.000000
*PAREX		=  14, 0.000000
*PAREX		=  15, 0.000000
*FULL_SCALE	=  35454760
*INDEX		=  0, 0, 0
*COUNT		=  1501
2363650.8, 2345224, 2273192, 2085574.3
1964962.6, 1608153.6, 1206115.3, 776437
407901, 245584, 104387, 58159.1
36436.4, 26110, 21562.2, 17495.9
16532.8, 16746.8, 16318.8, 15890.7
16265.3, 15944.3, 16639.8, 17442.4
16960.8, 20010.6, 20599.1, 19368.5
20438.6, 20813.1, 23702.4, 20278.1
23434.8, 24130.4, 25896, 25468
23541.8, 27073.1, 27608.2, 28464.2
30871.9, 29427.3, 27554.7, 32637.6
29855.3, 31942, 32370, 34135.7
31942, 32798.1, 34028.7, 36061.8
37345.9, 38469.5, 37988, 40663.2
39967.6, 38309, 40770.2, 44248
42161.3, 43124.4, 42910.4, 45050.5
46013.6, 46602.2, 48956.3, 47297.7
48635.3, 45853.1, 49758.9, 50347.5
50882.5, 51203.5, 51899.1, 53236.7
51685.1, 55751.4, 55216.3, 56018.9
54467.3, 58694.1, 54199.8, 58801.1
60138.7, 61422.8, 60727.3, 65061.1
58480.1, 57142.5, 62492.9, 63509.5
65168.1, 60245.7, 64258.5, 64633.1
67147.8, 63777, 63937.5, 65328.6
67415.3, 68057.3, 68538.9, 69448.5
67843.3, 68645.9, 70732.6, 75922.5
70144, 72177.2, 71053.6, 73033.2
73996.3, 72230.7, 72872.7, 75280.4
78009.1, 72979.7, 75654.9, 78704.7
74477.8, 75547.9, 77795.1, 78116.1
72605.2, 77474.1, 81272.9, 76885.5
76992.5, 80256.3, 81593.9, 79453.7
82503.5, 82503.5, 82771, 82289.5
78490.7, 79507.2, 83627.1, 82664
81700.9, 78651.2, 80791.3, 79988.8
79774.8, 76725, 81647.4, 81807.9
85927.7, 78597.7, 79774.8, 81540.4
81005.4, 79239.7, 83306, 81165.9
81754.4, 81112.4, 78597.7, 79935.3
83894.6, 80791.3, 78972.2, 79721.3
77848.6, 79614.3, 75333.9, 74263.8
74905.9, 77955.6, 76992.5, 74531.4
69983.5, 71909.6, 73300.8, 68645.9
65435.6, 65917.2, 62118.4, 60887.8
62439.4, 58266.1, 55965.4, 55430.4
51578, 52701.6, 51685.1, 50882.5
48956.3, 42749.9, 41786.8, 40556.2
37934.5, 35366.3, 34617.2, 33012.1
30069.4, 26698.6, 24879.5, 23541.8
22632.3, 21187.7, 19850.1, 19208
19047.5, 16907.3, 14874.2, 15623.2
14874.2, 14660.2, 12734, 12894.5
11449.9, 11919, 11228, 10703
10119, 9587, 9258, 8558
8105, 7929, 7370, 7209
6822, 6403, 6146, 5922
5614, 5266, 5143, 4837
4828, 4392, 4357, 4215
3910, 3750, 3637, 3464
3240, 3211, 2998, 2956
2825, 2667, 2660, 2470
2358, 2295, 2164, 2100
2035, 1969, 1804, 1737
1766, 1662, 1542, 1464
1559, 1371, 1396, 1345
1281, 1194, 1188, 1062
1058, 1077, 1025, 903
965, 871, 847, 823
783, 771, 714, 698
684, 602, 591, 569
559, 514, 527, 473
467, 457, 430, 445
407, 406, 356, 375
349, 312, 302, 270
261, 280, 298, 272
280, 215, 186, 236
185, 204, 190, 178
165, 180, 151, 162
136, 146, 139, 129
114, 129, 115, 96
103, 97, 92, 76
88, 87, 71, 68
56, 46, 73, 59
58, 54, 56, 59
55, 45, 48, 45
42, 34, 36, 29
37, 23, 27, 28
19, 23, 30, 21
17, 21, 21, 24
13, 18, 16, 10
10, 8, 12, 11
8, 9, 13, 7
5, 2, 12, 8
9, 10, 2, 15
4, 11, 10, 7
4, 2, 7, 3
9, 2, 4, 6
3, 8, 1, 3
6, 6, 6, 6
3, 1, 3, 6
0.000000, 3, 5, 8
1, 6, 4, 1
4, 4, 4, 0.000000
3, 7, 4, 8
2, 1, 6, 6
8, 6, 4, 2
3, 4, 3, 3
3, 0.000000, 7, 5
3, 3, 6, 5
6, 4, 6, 3
5, 2, 3, 7
1, 3, 3, 5
7, 5, 8, 2
3, 5, 4, 6
3, 5, 7, 3
2, 2, 4, 3
11, 5, 7, 7
6, 5, 6, 2
6, 4, 6, 3
5, 9, 10, 5
6, 6, 3, 5
5, 5, 6, 7
5, 4, 6, 2
6, 5, 7, 3
2, 4, 6, 7
4, 7, 4, 4
3, 10, 5, 5
6, 8, 2, 1
2, 0.000000, 6, 4
6, 7, 2, 7
7, 4, 6, 3
4, 7, 6, 2
2, 4, 8, 4
4, 6, 7, 3
7, 5, 8, 7
6, 3, 2, 2
4, 6, 5, 4
3, 6, 4, 5
6, 1, 4, 1
4, 7, 0.000000, 8
6, 6, 3, 4
1, 4, 3, 7
2, 13, 5, 10
5, 8, 7, 1
9, 5, 3, 6
4, 5, 7, 2
2, 1, 1, 3
6, 4, 6, 7
6, 7, 8, 2
5, 2, 1, 6
5, 7, 3, 2
6, 5, 3, 3
6, 2, 6, 8
5, 10, 3, 2
3, 4, 8, 3
2, 6, 12, 3
4, 2, 5, 4
4, 6, 2, 2
2, 5, 4, 4
8, 6, 4, 2
1, 2, 4, 3
3, 8, 4, 2
6, 3, 2, 2
2, 4, 0.000000, 9
6, 6, 1, 1
4, 4, 6, 5
3, 5, 4, 4
8, 3, 4, 3
5, 6, 2, 7
4, 5, 5, 6
1, 3, 2, 3
4, 2, 4, 2
1, 4, 4, 6
3, 3, 3, 4
5, 2, 3, 2
2, 2, 3, 7
3, 7, 7, 3
4, 1, 5, 0.000000
3, 4, 2, 5
2, 3, 4, 3
6, 2, 3, 3
2, 2, 2, 5
5, 4, 3, 4
4, 5, 2, 1
3, 3, 2, 6
3, 3, 4, 7
4, 7, 5, 0.000000
5, 4, 4, 1
5, 5, 6, 5
5, 4, 2, 3
4, 3, 9, 3
1, 1, 2, 3
1, 4, 6, 7
4, 4, 6, 5
1, 4, 2, 3
6, 3, 2, 2
6, 2, 3, 2
2, 0.000000, 1, 0.000000
2, 1, 5, 3
1, 2, 0.000000, 2
1, 5, 3, 7
2, 3, 3, 2
3, 1, 3, 2
5, 3, 6, 3
5, 2, 4, 1
1, 2, 3, 1
8, 2, 1, 3
3, 2, 2, 1
6, 6, 2, 2
2, 4, 2, 1
2, 1, 3, 1
3, 2, 4, 4
1, 5, 8, 1
5, 2, 3, 2
1, 4, 4, 4
0.000000, 1, 1, 2
2, 2, 3, 2
2, 1, 3, 2
3, 2, 4, 1
2, 1, 1, 1
1, 5, 2, 3
3, 3, 5, 3
4, 2, 8, 1
3, 6, 4, 7
1, 2, 1, 2
6, 3, 0.000000, 1
1, 1, 1, 6
1, 2, 0.000000, 3
3, 2, 1, 4
3, 5, 3, 4
0.000000, 4, 4, 2
5, 3, 2, 6
3, 2, 5, 0.000000
1, 3, 5, 1
2, 3, 2, 4
2, 1, 0.000000, 5
4, 4, 4, 2
2, 1, 6, 2
3, 3, 3, 2
3, 3, 4, 2
2, 4, 2, 3
4, 3, 2, 0.000000
3, 3, 3, 2
1, 2, 3, 2
0.000000, 2, 3, 2
5, 4, 2, 3
2, 2, 1, 2
4, 1, 2, 6
2, 4, 1, 0.000000
2, 3, 2, 1
1, 2, 4, 2
2, 0.000000, 2, 5
2, 4, 1, 4
3, 1, 4, 4
3, 6, 0.000000, 1
2, 4, 2, 4
4, 0.000000, 2, 1
2, 2, 4, 1
1, 3, 1, 3
8, 3, 3, 2
1, 2, 3, 2
5, 3, 1, 2
0.000000, 0.000000, 1, 3
4, 5, 4, 0.000000
2, 4, 3, 4
2, 0.000000, 4, 3
0.000000, 3, 1, 3
3, 1, 2, 2
3, 3, 2, 3
0.000000, 3, 3, 1
1, 2, 4, 0.000000
2, 2, 1, 0.000000
2, 4, 0.000000, 6
1, 5, 1, 2
3, 2, 2, 4
4, 3, 1, 3
2, 0.000000, 1, 2
0.000000, 0.000000, 3, 3
2, 2, 3, 2
2, 2, 3, 4
3, 1, 1, 0.000000
2, 3, 2, 1
2, 4, 2, 1
0.000000, 3, 1, 2
2, 1, 2, 1
2, 1, 3, 4
0.000000, 0.000000, 3, 0.000000
1, 4, 3, 4
2, 6, 3, 2
1, 3, 1, 3
1, 3, 1, 4
1, 3, 1, 5
5, 1, 4, 2
1, 2, 7, 4
1, 3, 3, 1
4, 0.000000, 0.000000, 0.000000
1, 2, 2, 3
2, 3, 2, 1
3, 7, 1, 0.000000
1, 4, 1, 3
2, 2, 3, 4
1, 3, 2, 1
2, 1, 3, 3
0.000000, 2, 1, 2
1, 1, 2, 2
6, 5, 1, 1
1, 1, 2, 0.000000
1, 2, 2, 1
3, 3, 3, 3
1, 3, 4, 1
1, 0.000000, 3, 1
2, 3, 3, 2
0.000000, 0.000000, 3, 1
0.000000, 2, 1, 2
6, 1, 1, 4
1, 2, 2, 3
0.000000, 3, 3, 2
3, 0.000000, 0.000000, 4
2, 2, 3, 3
0.000000, 4, 3, 1
1, 2, 2, 4
2, 1, 2, 2
3, 0.000000, 3, 2
7, 5, 2, 5
0.000000, 0.000000, 2, 3
3, 7, 2, 1
0.000000, 3, 2, 1
4, 1, 2, 3
1, 2, 1, 3
2, 0.000000, 2, 2
2, 2, 4, 3
0.000000, 3, 2, 2
3, 1, 2, 1
3, 2, 0.000000, 1
4, 0.000000, 0.000000, 2
2, 3, 1, 0.000000
1, 2, 3, 2
2, 3, 3, 4
0.000000, 1, 4, 4
3, 2, 3, 2
2, 1, 3, 1
4, 2, 5, 1
2, 1, 1, 0.000000
2, 2, 2, 3
0.000000, 3, 0.000000, 3
5, 2, 1, 1
3, 1, 2, 4
2, 1, 8, 1
4, 0.000000, 3, 3
2, 3, 4, 1
2, 1, 2, 4
3, 0.000000, 2, 3
1, 2, 3, 2
2, 1, 2, 0.000000
3, 2, 3, 1
2, 2, 2, 0.000000
0.000000, 2, 3, 1
1, 1, 1, 2
3, 2, 2, 3
2, 1, 2, 3
4, 5, 0.000000, 2
0.000000, 1, 0.000000, 1
3, 0.000000, 1, 2
3, 3, 0.000000, 3
2, 0.000000, 3, 3
3, 2, 1, 0.000000
0.000000, 2, 0.000000, 0.000000
2, 3, 2, 3
3, 2, 5, 4
2, 1, 1, 2
1, 1, 1, 0.000000
3, 3, 1, 4
1, 0.000000, 4, 1
5, 4, 2, 0.000000
0.000000
*END

*EOF