File: 20220926_XRR/20210729-1-5 2/20210729-5_2θ_ω.asc
*TYPE		=  Raw
*CLASS		=  ASCII CLASS
*SAMPLE		=  2V032701 Fe1h VSM
*COMMENT	=
*FNAME		=  20210729-5_2θ_ω.asc
*DATE		=  29-Jul-21 12:07

*GROUP_COUNT	=  1
*GONIO		=  SmartLab(In-plane), 0.000000
*ATTACHMENT	=  χφZクレードル
*ASC		=  0, 0, 0.000000, 0.000000
*I_MONOCHRO	=  Ge(220)x2, 0.000000
*FILTER		=  None
*C_MONOCHRO	=  None, 0.000000
*SLIT_NAME	=  0, 入射スリット
*SLIT_NAME	=  1, 受光スリット1
*SLIT_NAME	=  2, 受光スリット2
*COUNTER	=  SC-70, 0
*POS_FORMAT	=  0
*SCAN_AXIS	=  2Theta/Omega
*MEAS_MODE	=  Continuous Scanning
*TARGET		=  29
*XRAY_CHAR	=  K-ALPHA1
*WAVE_LENGTH1	=  1.54059
*WAVE_LENGTH2	=  1.54441
*THICKNESS	=  0, 0.000000
*MU		=  0, 0.000000
*SCAN_MODE	=  2Theta/Omega
*SPEED_DIM	=  sec./step
*XUNIT		=  deg.
*YUNIT		=  counts
*SCALE_MODE	=  1
*REP_COUNT	=  0
*SE_COUNT	=  0
*STD_MATERIAL	=  Unknown, Unknown, 0.000000, 0.000000, 0.000000, 0.000000, 0.000000, 0.000000
*LATT_CONS	=  0, Unknown, Unknown, 0.000000, 0.000000, 0.000000, 0.000000, 0.000000, 0.000000
*SEC_COUNT	=  1
*TSPEC_SIZE	=  0
*EXTRA_SIZE	=  0
*MEMO		=

*BEGIN
*GROUP		=  0
*START		=  0.000000
*STOP		=  6
*STEP		=  0.004
*OFFSET		=  0.000000
*SPEED		=  0.6
*SLIT_SPEC	=  0, 0.100mm, 0.1, 0.000000
*SLIT_SPEC	=  1, 0.200mm, 0.2, 0.000000
*SLIT_SPEC	=  2, 0.200mm, 0.2, 0.000000
*KV		=  45
*MA		=  200
*LOW		=  0.000000
*HIGH		=  0.000000
*CTEMPER	=  0, 0.000000
*CTEMPER	=  1, 0.000000
*CTEMPER	=  2, 0.000000
*PAREX		=  0, 0.000000
*PAREX		=  1, 0.000000
*PAREX		=  2, 0.000000
*PAREX		=  3, 0.000000
*PAREX		=  4, 0.000000
*PAREX		=  5, 0.000000
*PAREX		=  6, 0.000000
*PAREX		=  7, 0.000000
*PAREX		=  8, 0.000000
*PAREX		=  9, 0.000000
*PAREX		=  10, 0.000000
*PAREX		=  11, 0.000000
*PAREX		=  12, 0.000000
*PAREX		=  13, 0.000000
*PAREX		=  14, 0.000000
*PAREX		=  15, 0.000000
*FULL_SCALE	=  37483380
*INDEX		=  0, 0, 0
*COUNT		=  1501
18636156, 18741690, 18439324, 18105130
16682918, 14139188, 10754527, 7464513
5127665, 3823552.8, 3287501.5, 3271587.5
3289176.8, 3362883.8, 3741469.8, 3749845.8
4125081.5, 4249043.5, 4526282.5, 4818597.5
5035531, 5319470.5, 5512114, 5679630
5912477, 6247509, 6266773.5, 6608506
6740006.5, 7149583, 7183923.5, 7320449
7763529, 7748452.5, 8144628, 8291204.5
8467934, 8444482, 8667278, 8988909
9010686, 9347393, 9591966, 9511558
9891820, 10261193, 10382642, 10494040
10476451, 10721024, 11022553, 11014177
11337483, 11268801, 11667489, 11411190
11798152, 11981582, 12087117, 12341741
12303213, 12603904, 12580452, 12649971
12986678, 12979977, 13124879, 13080487
13420544, 13469962, 13397930, 13676844
13480850, 13902990, 13927280, 14157615
14301678, 14097309, 14259800, 14459144
14482596, 14345233, 14458306, 14483433
14735545, 14993520, 15003571, 15114969
15173599, 15109943, 15190351, 15241443
15232230, 15459214, 15265733, 15275784
15402259, 15506956, 15437437, 15382157
15735615, 15532084, 15717189, 15826912
15836125, 15597415, 15806810, 15624217
15757393, 15670284, 15857902, 15626730
15819373, 15751529, 15820211, 15547998
15690386, 15564749, 15701275, 15728915
15629243, 15538784, 15475966, 15453351
15477641, 15315150, 15342790, 15465077
15682010, 15264058, 15396396, 15106593
15089841, 15109106, 14984306, 14940752
14977606, 14987657, 14764860, 14654300
14542902, 14592319, 14382086, 14407214
14472545, 13996799, 14075532, 13897965
13940682, 13768978, 13686057, 13571309
13428920, 13326735, 13330086, 13180159
12912133, 12863554, 12616468, 12679286
12584640, 12478267, 12011735, 12116432
11967343, 11838356, 11733658, 11375174
11357585, 11272152, 10973973, 10687521
10770441, 10125505, 9995680, 9942075
9880931, 9577727, 9457116, 9020737
8713345, 8625399, 8441969, 8254351
7859013, 7592662.5, 7344739, 7049073.5
6809525.5, 6588404.5, 6215681, 5965245
5643614, 5433381.5, 5135203, 4837024.5
4601664.5, 4378868, 3996931.8, 3901447.8
3613320, 3408950.5, 3127523.8, 3058004.5
2877925, 2778252.8, 2519440.8, 2437544.3
2306833.5, 2151511, 2054293.8, 1952582.3
1858093.9, 1762267.9, 1652958.8, 1581423.6
1494372.3, 1456812.4, 1386079.8, 1318022.5
1247825, 1208713.4, 1125407.4, 1087633.4
1044669.5, 995927, 954568, 917811
882605, 842691, 802777, 779556
736164, 708396, 671906, 650344
643442, 594271, 584854, 557353
525518, 524341, 493897, 482180
457996, 444727, 437290, 423379
409200, 388655, 374583, 352325
339538, 328890, 313588, 305830
284696, 284268, 272497, 275654
271159, 260405, 251149, 240341
234188, 229373, 211021, 208185
191652, 189084, 174691, 172765
167575, 156767, 161262, 156714
153397, 150400, 150454, 145959
143124, 137345, 126912, 127661
118351, 113589, 104868, 99678.3
97270.6, 93418.3, 92615.8, 90957.1
90422.1, 83092, 87158.3, 85071.7
88710, 83680.6, 81807.9, 81722
77956, 73788, 70151, 65672
61598, 57417, 54892, 52201
50674, 49945, 49993, 49774
50531, 51049, 50937, 50854
50079, 49591, 47582, 44992
42652, 39600, 36977, 34035
31822, 29539, 27969, 26823
26611, 26518, 27280, 27770
28696, 29315, 29132, 29561
28938, 28271, 26886, 25691
23558, 21782, 19541, 17874
16124, 15123, 13902, 13788
13946, 13737, 14558, 15031
15680, 16554, 16966, 17441
16954, 16372, 15565, 14653
13235, 12129, 10809, 9544
8470, 7567, 6872, 6682
6467, 6735, 7228, 7623
8214, 8923, 9275, 9609
9567, 9375, 9109, 8469
7785, 6991, 6183, 5269
4524, 3724, 3325, 3104
3002, 2991, 3239, 3640
4076, 4498, 4964, 5205
5525, 5411, 5379, 5101
4780, 4185, 3829, 3261
2655, 2192, 1752, 1498
1384, 1237, 1343, 1441
1730, 1980, 2374, 2633
2778, 2991, 3187, 3030
2923, 2697, 2525, 2070
1733, 1374, 1143, 938
721, 557, 563, 551
661, 813, 1042, 1239
1348, 1538, 1552, 1578
1699, 1651, 1504, 1391
1137, 1085, 863, 710
525, 445, 351, 351
394, 443, 512, 634
723, 849, 847, 946
1019, 1043, 961, 924
830, 729, 669, 549
485, 399, 342, 373
370, 373, 424, 478
517, 576, 591, 650
693, 679, 679, 666
609, 484, 510, 439
428, 388, 374, 393
396, 422, 465, 462
559, 579, 596, 633
657, 706, 627, 640
549, 454, 442, 351
333, 306, 269, 294
332, 373, 398, 429
557, 590, 599, 728
705, 714, 706, 702
679, 622, 510, 453
409, 308, 307, 225
257, 247, 274, 348
403, 450, 546, 685
756, 782, 836, 798
794, 775, 721, 709
618, 482, 409, 316
282, 268, 232, 253
308, 341, 386, 455
565, 666, 725, 827
883, 875, 914, 896
820, 793, 655, 566
479, 370, 331, 270
251, 222, 253, 292
376, 436, 532, 595
738, 789, 871, 925
870, 983, 835, 811
742, 677, 570, 475
403, 322, 260, 237
230, 283, 295, 393
465, 499, 671, 731
808, 851, 923, 899
916, 820, 769, 710
648, 536, 483, 414
340, 272, 282, 250
295, 310, 372, 449
580, 614, 776, 791
789, 888, 862, 831
870, 800, 690, 610
605, 477, 402, 347
268, 248, 239, 261
280, 341, 390, 490
585, 642, 758, 774
839, 829, 824, 854
774, 730, 675, 565
465, 400, 330, 262
257, 237, 237, 253
331, 383, 486, 572
618, 699, 732, 753
772, 803, 761, 742
711, 635, 567, 446
398, 350, 283, 243
236, 251, 270, 307
355, 420, 455, 535
610, 659, 740, 712
752, 741, 693, 677
651, 577, 500, 436
328, 307, 224, 233
232, 219, 264, 362
424, 450, 505, 532
594, 665, 688, 690
665, 672, 652, 585
542, 502, 434, 329
321, 282, 236, 207
273, 280, 300, 352
382, 430, 512, 516
605, 634, 632, 642
660, 610, 575, 516
498, 414, 351, 319
260, 228, 208, 186
271, 251, 297, 371
372, 389, 515, 560
596, 567, 659, 612
576, 526, 541, 486
437, 344, 354, 253
227, 226, 212, 247
220, 237, 313, 362
375, 440, 482, 542
545, 573, 528, 507
561, 541, 476, 417
380, 314, 268, 235
228, 201, 195, 209
231, 216, 318, 338
407, 459, 488, 471
515, 532, 493, 519
465, 503, 403, 353
333, 316, 248, 222
217, 193, 198, 215
261, 279, 285, 373
363, 409, 427, 435
501, 473, 472, 499
409, 382, 352, 328
302, 246, 203, 208
175, 182, 187, 187
242, 256, 302, 307
321, 384, 412, 410
425, 406, 438, 451
413, 366, 316, 299
265, 238, 200, 187
191, 168, 146, 204
187, 242, 267, 304
335, 385, 361, 385
330, 423, 382, 371
347, 309, 294, 297
248, 183, 156, 173
164, 176, 164, 216
205, 208, 262, 289
319, 381, 347, 355
337, 338, 330, 336
327, 302, 275, 240
189, 191, 168, 134
144, 160, 156, 169
208, 196, 288, 285
286, 321, 342, 307
320, 350, 329, 293
282, 252, 252, 196
178, 165, 178, 150
145, 172, 190, 170
195, 207, 244, 258
304, 273, 319, 323
303, 266, 263, 272
270, 236, 160, 211
174, 139, 137, 112
139, 123, 156, 175
189, 218, 217, 221
240, 272, 243, 259
276, 263, 246, 229
209, 208, 204, 172
164, 141, 136, 115
108, 123, 169, 158
190, 196, 190, 192
252, 223, 257, 241
249, 254, 201, 196
166, 182, 167, 161
132, 126, 122, 93
134, 111, 118, 143
158, 160, 165, 193
211, 220, 229, 230
235, 210, 217, 162
150, 134, 157, 115
125, 101, 93, 100
93, 113, 123, 110
145, 150, 182, 184
185, 193, 180, 183
172, 188, 170, 161
143, 147, 145, 120
111, 101, 99, 90
112, 104, 113, 124
146, 140, 164, 155
164, 164, 156, 186
161, 146, 143, 132
125, 121, 123, 85
64, 75, 77, 72
80, 88, 110, 110
119, 122, 125, 151
135, 151, 132, 157
131, 141, 112, 98
99, 89, 91, 79
63, 79, 87, 67
79, 64, 93, 88
109, 123, 118, 113
120, 136, 131, 110
100, 110, 109, 81
79, 94, 80, 68
49, 56, 63, 61
71, 70, 84, 90
90, 97, 100, 122
120, 99, 102, 93
95, 94, 89, 90
64, 58, 50, 56
57, 54, 44, 56
71, 63, 70, 72
76, 94, 92, 104
91, 100, 67, 91
76, 88, 60, 81
65, 58, 49, 49
50, 46, 51, 44
52, 41, 57, 64
83, 81, 69, 77
80, 72, 87, 71
65, 67, 49, 52
49, 39, 39, 46
28, 41, 33, 40
48, 37, 50, 61
58, 55, 60, 63
72, 77, 62, 63
60, 46, 44, 53
44, 39, 32, 37
26, 36, 39, 39
41, 44, 41, 59
36, 52, 49, 57
61, 63, 55, 57
33, 46, 44, 36
30, 27, 33, 15
27, 20, 34, 34
31, 41, 32, 37
40, 50, 51, 39
45, 40, 33, 34
34, 22, 34, 27
40, 24, 18, 26
27, 25, 22, 24
30, 30, 40, 26
44, 22, 36, 43
33, 32, 39, 18
40, 33, 24, 26
25, 15, 16, 20
13, 18, 12, 26
20, 18, 32, 23
29, 21, 26, 28
32, 33, 27, 28
26, 10, 16, 24
17, 18, 12, 16
21, 21, 24, 19
19, 28, 28, 15
21, 16, 21, 17
25, 27, 18, 11
19, 18, 23, 20
20, 10, 14, 12
13, 14, 13, 13
15, 17, 15, 16
18, 14, 14, 19
11, 16, 22, 12
12, 17, 17, 8
10, 18, 15, 9
16, 17, 14, 11
13, 16, 12, 16
12, 20, 7, 14
7, 21, 15, 17
20, 11, 11, 10
4, 16, 10, 14
12, 5, 17, 11
10, 16, 12, 14
9, 9, 15, 13
13, 12, 15, 9
11, 8, 10, 11
11, 12, 14, 2
6, 14, 11, 10
12, 8, 7, 13
8, 10, 10, 7
9, 8, 9, 13
9, 8, 7, 14
10, 6, 10, 9
6, 6, 7, 11
10, 9, 6, 6
11, 7, 10, 10
9, 10, 5, 10
7, 7, 8, 9
11, 6, 8, 2
16, 5, 10, 11
9, 9, 5, 9
8, 10, 10, 7
8, 11, 8, 4
6, 2, 11, 8
4, 7, 9, 7
7
*END

*EOF